<?xml version="1.0" encoding="UTF-8"?>
<!-- Produced from SAS data using SAS Clinical Standards Toolkit -->
<ODM
xmlns="http://www.cdisc.org/ns/odm/v1.3"
xmlns:data="http://www.cdisc.org/ns/Dataset-XML/v1.0"
ODMVersion="1.3.2"
FileType="Snapshot"
FileOID="SAS_CST_Define.ADAE"
PriorFileOID="SAS_CST_Define"
CreationDateTime="2022-05-31T16:59:28"
data:DatasetXMLVersion="1.0.0">
<ClinicalData StudyOID="SAS_CST_Define" MetaDataVersionOID="MDV.1">
<ItemGroupData ItemGroupOID="IG.ADAE" data:ItemGroupDataSeq="1">
<ItemData ItemOID="IT.ADAE.STUDYID" Value="SASCSTDEMODATA"/>
<ItemData ItemOID="IT.ADAE.USUBJID" Value="S001P002"/>
<ItemData ItemOID="IT.ADAE.AESEQ" Value="1"/>
<ItemData ItemOID="IT.ADAE.AETERM" Value="ABDOMINAL PAIN"/>
<ItemData ItemOID="IT.ADAE.AEDECOD" Value="Abdominal pain"/>
<ItemData ItemOID="IT.ADAE.AEBODSYS" Value="GASTROINTESTINAL DISORDERS"/>
<ItemData ItemOID="IT.ADAE.AEBDSYCD" Value="10017947"/>
<ItemData ItemOID="IT.ADAE.AELLT" Value="Abdominal pain"/>
<ItemData ItemOID="IT.ADAE.AELLTCD" Value="10000081"/>
<ItemData ItemOID="IT.ADAE.AEPTCD" Value="10000081"/>
<ItemData ItemOID="IT.ADAE.AEHLT" Value="Gastrointestinal and abdominal pains (excl oral and throat)"/>
<ItemData ItemOID="IT.ADAE.AEHLTCD" Value="10017926"/>
<ItemData ItemOID="IT.ADAE.AEHLGT" Value="Gastrointestinal signs and symptoms"/>
<ItemData ItemOID="IT.ADAE.AEHLGTCD" Value="10018012"/>
<ItemData ItemOID="IT.ADAE.AESOC" Value="Gastrointestinal disorders"/>
<ItemData ItemOID="IT.ADAE.AESOCCD" Value="10017947"/>
<ItemData ItemOID="IT.ADAE.AESTDTC" Value="2008-02-13T12:00"/>
<ItemData ItemOID="IT.ADAE.ASTDTM" Value="1518523200"/>
<ItemData ItemOID="IT.ADAE.AEENDTC" Value="2008-02-21T12:00"/>
<ItemData ItemOID="IT.ADAE.AENDTM" Value="1518436800"/>
<ItemData ItemOID="IT.ADAE.ASTDY" Value="3"/>
<ItemData ItemOID="IT.ADAE.AENDY" Value="11"/>
<ItemData ItemOID="IT.ADAE.ADURN" Value="8"/>
<ItemData ItemOID="IT.ADAE.ADURU" Value="DAYS"/>
<ItemData ItemOID="IT.ADAE.AEDUR" Value="P8DT19H30M"/>
<ItemData ItemOID="IT.ADAE.AOCCFL" Value="Y"/>
<ItemData ItemOID="IT.ADAE.AOCCIFL" Value="Y"/>
<ItemData ItemOID="IT.ADAE.DOSEAEON" Value="120"/>
<ItemData ItemOID="IT.ADAE.DOSAEONU" Value="MG"/>
<ItemData ItemOID="IT.ADAE.DOSECUM" Value="120"/>
<ItemData ItemOID="IT.ADAE.DOSECUMU" Value="MG"/>
<ItemData ItemOID="IT.ADAE.AESER" Value="N"/>
<ItemData ItemOID="IT.ADAE.AESEV" Value="MODERATE"/>
<ItemData ItemOID="IT.ADAE.AESEVN" Value="2"/>
<ItemData ItemOID="IT.ADAE.ASEV" Value="Other"/>
<ItemData ItemOID="IT.ADAE.AEREL" Value="NOT RELATED"/>
<ItemData ItemOID="IT.ADAE.AERELN" Value="1"/>
<ItemData ItemOID="IT.ADAE.AREL" Value="Not Related"/>
<ItemData ItemOID="IT.ADAE.ARELN" Value="1"/>
<ItemData ItemOID="IT.ADAE.AETOXGR" Value="2"/>
<ItemData ItemOID="IT.ADAE.AETOXGRN" Value="2"/>
<ItemData ItemOID="IT.ADAE.AEACN" Value="NOT APPLICABLE"/>
<ItemData ItemOID="IT.ADAE.AGE" Value="48"/>
<ItemData ItemOID="IT.ADAE.SEX" Value="F"/>
<ItemData ItemOID="IT.ADAE.TRTP" Value="TRT C"/>
<ItemData ItemOID="IT.ADAE.TRTEDT" Value="17602"/>
<ItemData ItemOID="IT.ADAE.TRTSDT" Value="17573"/>
<ItemData ItemOID="IT.ADAE.SAFFL" Value="Y"/>
<ItemData ItemOID="IT.ADAE.TRTPN" Value="3"/>
</ItemGroupData>
<ItemGroupData ItemGroupOID="IG.ADAE" data:ItemGroupDataSeq="2">
<ItemData ItemOID="IT.ADAE.STUDYID" Value="SASCSTDEMODATA"/>
<ItemData ItemOID="IT.ADAE.USUBJID" Value="S001P003"/>
<ItemData ItemOID="IT.ADAE.AESEQ" Value="2"/>
<ItemData ItemOID="IT.ADAE.AETERM" Value="ABDOMINAL CRAMP"/>
<ItemData ItemOID="IT.ADAE.AEDECOD" Value="Abdominal pain"/>
<ItemData ItemOID="IT.ADAE.AEBODSYS" Value="GASTROINTESTINAL DISORDERS"/>
<ItemData ItemOID="IT.ADAE.AEBDSYCD" Value="10017947"/>
<ItemData ItemOID="IT.ADAE.AELLT" Value="Abdominal cramp"/>
<ItemData ItemOID="IT.ADAE.AELLTCD" Value="10000056"/>
<ItemData ItemOID="IT.ADAE.AEPTCD" Value="10000081"/>
<ItemData ItemOID="IT.ADAE.AEHLT" Value="Gastrointestinal and abdominal pains (excl oral and throat)"/>
<ItemData ItemOID="IT.ADAE.AEHLTCD" Value="10017926"/>
<ItemData ItemOID="IT.ADAE.AEHLGT" Value="Gastrointestinal signs and symptoms"/>
<ItemData ItemOID="IT.ADAE.AEHLGTCD" Value="10018012"/>
<ItemData ItemOID="IT.ADAE.AESOC" Value="Gastrointestinal disorders"/>
<ItemData ItemOID="IT.ADAE.AESOCCD" Value="10017947"/>
<ItemData ItemOID="IT.ADAE.AESTDTC" Value="2008-02-13T12:00"/>
<ItemData ItemOID="IT.ADAE.ASTDTM" Value="1518523200"/>
<ItemData ItemOID="IT.ADAE.AEENDTC" Value="2008-02-13T12:00"/>
<ItemData ItemOID="IT.ADAE.AENDTM" Value="1518523200"/>
<ItemData ItemOID="IT.ADAE.ASTDY" Value="40"/>
<ItemData ItemOID="IT.ADAE.AENDY" Value="40"/>
<ItemData ItemOID="IT.ADAE.ADURN" Value="0"/>
<ItemData ItemOID="IT.ADAE.ADURU" Value="DAYS"/>
<ItemData ItemOID="IT.ADAE.AEDUR" Value="P10D"/>
<ItemData ItemOID="IT.ADAE.TRTEMFL" Value="Y"/>
<ItemData ItemOID="IT.ADAE.AOCCFL" Value="Y"/>
<ItemData ItemOID="IT.ADAE.DOSEAEON" Value="40"/>
<ItemData ItemOID="IT.ADAE.DOSAEONU" Value="MG"/>
<ItemData ItemOID="IT.ADAE.DOSECUM" Value="40"/>
<ItemData ItemOID="IT.ADAE.DOSECUMU" Value="MG"/>
<ItemData ItemOID="IT.ADAE.AESER" Value="N"/>
<ItemData ItemOID="IT.ADAE.ASEV" Value="Other"/>
<ItemData ItemOID="IT.ADAE.AEREL" Value="NOT RELATED"/>
<ItemData ItemOID="IT.ADAE.AERELN" Value="1"/>
<ItemData ItemOID="IT.ADAE.AREL" Value="Not Related"/>
<ItemData ItemOID="IT.ADAE.ARELN" Value="1"/>
<ItemData ItemOID="IT.ADAE.AETOXGR" Value="8"/>
<ItemData ItemOID="IT.ADAE.AEACN" Value="NOT APPLICABLE"/>
<ItemData ItemOID="IT.ADAE.AGE" Value="38"/>
<ItemData ItemOID="IT.ADAE.SEX" Value="F"/>
<ItemData ItemOID="IT.ADAE.TRTP" Value="TRT A"/>
<ItemData ItemOID="IT.ADAE.TRTEDT" Value="17617"/>
<ItemData ItemOID="IT.ADAE.TRTSDT" Value="17576"/>
<ItemData ItemOID="IT.ADAE.SAFFL" Value="Y"/>
<ItemData ItemOID="IT.ADAE.TRTPN" Value="1"/>
</ItemGroupData>
<ItemGroupData ItemGroupOID="IG.ADAE" data:ItemGroupDataSeq="3">
<ItemData ItemOID="IT.ADAE.STUDYID" Value="SASCSTDEMODATA"/>
<ItemData ItemOID="IT.ADAE.USUBJID" Value="S001P003"/>
<ItemData ItemOID="IT.ADAE.AESEQ" Value="3"/>
<ItemData ItemOID="IT.ADAE.AETERM" Value="RASH"/>
<ItemData ItemOID="IT.ADAE.AEDECOD" Value="Rash"/>
<ItemData ItemOID="IT.ADAE.AEBODSYS" Value="SKIN AND SUBCUTANEOUS TISSUE DISORDERS"/>
<ItemData ItemOID="IT.ADAE.AEBDSYCD" Value="10040785"/>
<ItemData ItemOID="IT.ADAE.AELLT" Value="Rash"/>
<ItemData ItemOID="IT.ADAE.AELLTCD" Value="10037844"/>
<ItemData ItemOID="IT.ADAE.AEPTCD" Value="10037844"/>
<ItemData ItemOID="IT.ADAE.AEHLT" Value="Rashes, eruptions and exanthems NEC"/>
<ItemData ItemOID="IT.ADAE.AEHLTCD" Value="10052566"/>
<ItemData ItemOID="IT.ADAE.AEHLGT" Value="Epidermal and dermal conditions"/>
<ItemData ItemOID="IT.ADAE.AEHLGTCD" Value="10014982"/>
<ItemData ItemOID="IT.ADAE.AESOC" Value="Skin and subcutaneous tissue disorders"/>
<ItemData ItemOID="IT.ADAE.AESOCCD" Value="10040785"/>
<ItemData ItemOID="IT.ADAE.AESTDTC" Value="2008-03-23"/>
<ItemData ItemOID="IT.ADAE.ASTDTM" Value="1521892800"/>
<ItemData ItemOID="IT.ADAE.ASTTMF" Value="H"/>
<ItemData ItemOID="IT.ADAE.AEENDTC" Value="2008-03-25T07:00"/>
<ItemData ItemOID="IT.ADAE.AENDTM" Value="1522047600"/>
<ItemData ItemOID="IT.ADAE.ASTDY" Value="40"/>
<ItemData ItemOID="IT.ADAE.AENDY" Value="42"/>
<ItemData ItemOID="IT.ADAE.ADURN" Value="2"/>
<ItemData ItemOID="IT.ADAE.ADURU" Value="DAYS"/>
<ItemData ItemOID="IT.ADAE.AEDUR" Value="P2D"/>
<ItemData ItemOID="IT.ADAE.TRTEMFL" Value="Y"/>
<ItemData ItemOID="IT.ADAE.AOCCIFL" Value="Y"/>
<ItemData ItemOID="IT.ADAE.DOSEAEON" Value="40"/>
<ItemData ItemOID="IT.ADAE.DOSAEONU" Value="MG"/>
<ItemData ItemOID="IT.ADAE.DOSECUM" Value="40"/>
<ItemData ItemOID="IT.ADAE.DOSECUMU" Value="MG"/>
<ItemData ItemOID="IT.ADAE.AESER" Value="N"/>
<ItemData ItemOID="IT.ADAE.AESEV" Value="MILD"/>
<ItemData ItemOID="IT.ADAE.AESEVN" Value="1"/>
<ItemData ItemOID="IT.ADAE.ASEV" Value="Mild"/>
<ItemData ItemOID="IT.ADAE.ASEVN" Value="1"/>
<ItemData ItemOID="IT.ADAE.SEVGR1" Value="Non-severe"/>
<ItemData ItemOID="IT.ADAE.SEVGR1N" Value="1"/>
<ItemData ItemOID="IT.ADAE.AEREL" Value="LIKELY RELATED"/>
<ItemData ItemOID="IT.ADAE.AERELN" Value="2"/>
<ItemData ItemOID="IT.ADAE.AREL" Value="Likely Related"/>
<ItemData ItemOID="IT.ADAE.ARELN" Value="2"/>
<ItemData ItemOID="IT.ADAE.AETOXGR" Value="1"/>
<ItemData ItemOID="IT.ADAE.AETOXGRN" Value="1"/>
<ItemData ItemOID="IT.ADAE.AEACN" Value="NOT APPLICABLE"/>
<ItemData ItemOID="IT.ADAE.CQ01NAM" Value="Pruritic or NOS rashes (CQ)"/>
<ItemData ItemOID="IT.ADAE.AGE" Value="38"/>
<ItemData ItemOID="IT.ADAE.SEX" Value="F"/>
<ItemData ItemOID="IT.ADAE.TRTP" Value="TRT A"/>
<ItemData ItemOID="IT.ADAE.TRTEDT" Value="17617"/>
<ItemData ItemOID="IT.ADAE.TRTSDT" Value="17576"/>
<ItemData ItemOID="IT.ADAE.SAFFL" Value="Y"/>
<ItemData ItemOID="IT.ADAE.TRTPN" Value="1"/>
</ItemGroupData>
<ItemGroupData ItemGroupOID="IG.ADAE" data:ItemGroupDataSeq="4">
<ItemData ItemOID="IT.ADAE.STUDYID" Value="SASCSTDEMODATA"/>
<ItemData ItemOID="IT.ADAE.USUBJID" Value="S001P005"/>
<ItemData ItemOID="IT.ADAE.AESEQ" Value="4"/>
<ItemData ItemOID="IT.ADAE.AETERM" Value="ABDOMINAL CRAMP"/>
<ItemData ItemOID="IT.ADAE.AEDECOD" Value="Abdominal pain"/>
<ItemData ItemOID="IT.ADAE.AEBODSYS" Value="GASTROINTESTINAL DISORDERS"/>
<ItemData ItemOID="IT.ADAE.AEBDSYCD" Value="10017947"/>
<ItemData ItemOID="IT.ADAE.AELLT" Value="Abdominal cramp"/>
<ItemData ItemOID="IT.ADAE.AELLTCD" Value="10000056"/>
<ItemData ItemOID="IT.ADAE.AEPTCD" Value="10000081"/>
<ItemData ItemOID="IT.ADAE.AEHLT" Value="Gastrointestinal and abdominal pains (excl oral and throat)"/>
<ItemData ItemOID="IT.ADAE.AEHLTCD" Value="10017926"/>
<ItemData ItemOID="IT.ADAE.AEHLGT" Value="Gastrointestinal signs and symptoms"/>
<ItemData ItemOID="IT.ADAE.AEHLGTCD" Value="10018012"/>
<ItemData ItemOID="IT.ADAE.AESOC" Value="Gastrointestinal disorders"/>
<ItemData ItemOID="IT.ADAE.AESOCCD" Value="10017947"/>
<ItemData ItemOID="IT.ADAE.AESTDTC" Value="2008-02-22"/>
<ItemData ItemOID="IT.ADAE.ASTDTM" Value="1519300800"/>
<ItemData ItemOID="IT.ADAE.ASTTMF" Value="H"/>
<ItemData ItemOID="IT.ADAE.AEENDTC" Value="2008-03-05"/>
<ItemData ItemOID="IT.ADAE.AENDTM" Value="1520337600"/>
<ItemData ItemOID="IT.ADAE.AENTMF" Value="H"/>
<ItemData ItemOID="IT.ADAE.ASTDY" Value="3"/>
<ItemData ItemOID="IT.ADAE.AENDY" Value="15"/>
<ItemData ItemOID="IT.ADAE.ADURN" Value="12"/>
<ItemData ItemOID="IT.ADAE.ADURU" Value="DAYS"/>
<ItemData ItemOID="IT.ADAE.AEDUR" Value="P12D"/>
<ItemData ItemOID="IT.ADAE.TRTEMFL" Value="Y"/>
<ItemData ItemOID="IT.ADAE.AOCCFL" Value="Y"/>
<ItemData ItemOID="IT.ADAE.AOCCIFL" Value="Y"/>
<ItemData ItemOID="IT.ADAE.DOSEAEON" Value="60"/>
<ItemData ItemOID="IT.ADAE.DOSAEONU" Value="MG"/>
<ItemData ItemOID="IT.ADAE.DOSECUM" Value="180"/>
<ItemData ItemOID="IT.ADAE.DOSECUMU" Value="MG"/>
<ItemData ItemOID="IT.ADAE.AESER" Value="N"/>
<ItemData ItemOID="IT.ADAE.AESEV" Value="SEVERE"/>
<ItemData ItemOID="IT.ADAE.AESEVN" Value="3"/>
<ItemData ItemOID="IT.ADAE.ASEV" Value="Severe"/>
<ItemData ItemOID="IT.ADAE.ASEVN" Value="3"/>
<ItemData ItemOID="IT.ADAE.SEVGR1" Value="Severe"/>
<ItemData ItemOID="IT.ADAE.SEVGR1N" Value="2"/>
<ItemData ItemOID="IT.ADAE.AREL" Value="Other"/>
<ItemData ItemOID="IT.ADAE.AETOXGR" Value="3"/>
<ItemData ItemOID="IT.ADAE.AETOXGRN" Value="3"/>
<ItemData ItemOID="IT.ADAE.AEACN" Value="NOT APPLICABLE"/>
<ItemData ItemOID="IT.ADAE.AGE" Value="51"/>
<ItemData ItemOID="IT.ADAE.SEX" Value="M"/>
<ItemData ItemOID="IT.ADAE.TRTP" Value="TRT C"/>
<ItemData ItemOID="IT.ADAE.TRTEDT" Value="17624"/>
<ItemData ItemOID="IT.ADAE.TRTSDT" Value="17582"/>
<ItemData ItemOID="IT.ADAE.SAFFL" Value="Y"/>
<ItemData ItemOID="IT.ADAE.TRTPN" Value="3"/>
</ItemGroupData>
<ItemGroupData ItemGroupOID="IG.ADAE" data:ItemGroupDataSeq="5">
<ItemData ItemOID="IT.ADAE.STUDYID" Value="SASCSTDEMODATA"/>
<ItemData ItemOID="IT.ADAE.USUBJID" Value="S001P005"/>
<ItemData ItemOID="IT.ADAE.AESEQ" Value="5"/>
<ItemData ItemOID="IT.ADAE.AETERM" Value="HEARTBURN"/>
<ItemData ItemOID="IT.ADAE.AEDECOD" Value="Dyspepsia"/>
<ItemData ItemOID="IT.ADAE.AEBODSYS" Value="GASTROINTESTINAL DISORDERS"/>
<ItemData ItemOID="IT.ADAE.AEBDSYCD" Value="10017947"/>
<ItemData ItemOID="IT.ADAE.AELLT" Value="Heartburn"/>
<ItemData ItemOID="IT.ADAE.AELLTCD" Value="10019326"/>
<ItemData ItemOID="IT.ADAE.AEPTCD" Value="10013946"/>
<ItemData ItemOID="IT.ADAE.AEHLT" Value="Dyspeptic signs and symptoms"/>
<ItemData ItemOID="IT.ADAE.AEHLTCD" Value="10013949"/>
<ItemData ItemOID="IT.ADAE.AEHLGT" Value="Gastrointestinal signs and symptoms"/>
<ItemData ItemOID="IT.ADAE.AEHLGTCD" Value="10018012"/>
<ItemData ItemOID="IT.ADAE.AESOC" Value="Gastrointestinal disorders"/>
<ItemData ItemOID="IT.ADAE.AESOCCD" Value="10017947"/>
<ItemData ItemOID="IT.ADAE.AESTDTC" Value="2008-03-08"/>
<ItemData ItemOID="IT.ADAE.ASTDTM" Value="1520596800"/>
<ItemData ItemOID="IT.ADAE.ASTTMF" Value="H"/>
<ItemData ItemOID="IT.ADAE.AEENDTC" Value="2008-03-10T23:00"/>
<ItemData ItemOID="IT.ADAE.AENDTM" Value="1520809200"/>
<ItemData ItemOID="IT.ADAE.ASTDY" Value="19"/>
<ItemData ItemOID="IT.ADAE.AENDY" Value="21"/>
<ItemData ItemOID="IT.ADAE.ADURN" Value="2"/>
<ItemData ItemOID="IT.ADAE.ADURU" Value="DAYS"/>
<ItemData ItemOID="IT.ADAE.AEDUR" Value="P2D"/>
<ItemData ItemOID="IT.ADAE.TRTEMFL" Value="Y"/>
<ItemData ItemOID="IT.ADAE.DOSEAEON" Value="60"/>
<ItemData ItemOID="IT.ADAE.DOSAEONU" Value="MG"/>
<ItemData ItemOID="IT.ADAE.DOSECUM" Value="180"/>
<ItemData ItemOID="IT.ADAE.DOSECUMU" Value="MG"/>
<ItemData ItemOID="IT.ADAE.AESER" Value="N"/>
<ItemData ItemOID="IT.ADAE.AESEV" Value="MODERATE"/>
<ItemData ItemOID="IT.ADAE.AESEVN" Value="2"/>
<ItemData ItemOID="IT.ADAE.ASEV" Value="Moderate"/>
<ItemData ItemOID="IT.ADAE.ASEVN" Value="2"/>
<ItemData ItemOID="IT.ADAE.SEVGR1" Value="Non-severe"/>
<ItemData ItemOID="IT.ADAE.SEVGR1N" Value="1"/>
<ItemData ItemOID="IT.ADAE.AEREL" Value="NOT RELATED"/>
<ItemData ItemOID="IT.ADAE.AERELN" Value="1"/>
<ItemData ItemOID="IT.ADAE.AREL" Value="Not Related"/>
<ItemData ItemOID="IT.ADAE.ARELN" Value="1"/>
<ItemData ItemOID="IT.ADAE.AETOXGR" Value="2"/>
<ItemData ItemOID="IT.ADAE.AETOXGRN" Value="2"/>
<ItemData ItemOID="IT.ADAE.AEACN" Value="NOT APPLICABLE"/>
<ItemData ItemOID="IT.ADAE.AGE" Value="51"/>
<ItemData ItemOID="IT.ADAE.SEX" Value="M"/>
<ItemData ItemOID="IT.ADAE.TRTP" Value="TRT C"/>
<ItemData ItemOID="IT.ADAE.TRTEDT" Value="17624"/>
<ItemData ItemOID="IT.ADAE.TRTSDT" Value="17582"/>
<ItemData ItemOID="IT.ADAE.SAFFL" Value="Y"/>
<ItemData ItemOID="IT.ADAE.TRTPN" Value="3"/>
</ItemGroupData>
<ItemGroupData ItemGroupOID="IG.ADAE" data:ItemGroupDataSeq="6">
<ItemData ItemOID="IT.ADAE.STUDYID" Value="SASCSTDEMODATA"/>
<ItemData ItemOID="IT.ADAE.USUBJID" Value="S001P005"/>
<ItemData ItemOID="IT.ADAE.AESEQ" Value="7"/>
<ItemData ItemOID="IT.ADAE.AETERM" Value="PRURITIC RASH"/>
<ItemData ItemOID="IT.ADAE.AEDECOD" Value="Rash pruritic"/>
<ItemData ItemOID="IT.ADAE.AEBODSYS" Value="SKIN AND SUBCUTANEOUS TISSUE DISORDERS"/>
<ItemData ItemOID="IT.ADAE.AEBDSYCD" Value="10040785"/>
<ItemData ItemOID="IT.ADAE.AELLT" Value="Pruritic rash"/>
<ItemData ItemOID="IT.ADAE.AELLTCD" Value="10037085"/>
<ItemData ItemOID="IT.ADAE.AEPTCD" Value="10037884"/>
<ItemData ItemOID="IT.ADAE.AEHLT" Value="Pruritus NEC"/>
<ItemData ItemOID="IT.ADAE.AEHLTCD" Value="10049293"/>
<ItemData ItemOID="IT.ADAE.AEHLGT" Value="Epidermal and dermal conditions"/>
<ItemData ItemOID="IT.ADAE.AEHLGTCD" Value="10014982"/>
<ItemData ItemOID="IT.ADAE.AESOC" Value="Skin and subcutaneous tissue disorders"/>
<ItemData ItemOID="IT.ADAE.AESOCCD" Value="10040785"/>
<ItemData ItemOID="IT.ADAE.AESTDTC" Value="2008-03-06T14:30"/>
<ItemData ItemOID="IT.ADAE.ASTDTM" Value="1520433000"/>
<ItemData ItemOID="IT.ADAE.AEENDTC" Value="2008-03-16T20:00"/>
<ItemData ItemOID="IT.ADAE.AENDTM" Value="1521316800"/>
<ItemData ItemOID="IT.ADAE.ASTDY" Value="17"/>
<ItemData ItemOID="IT.ADAE.AENDY" Value="27"/>
<ItemData ItemOID="IT.ADAE.ADURN" Value="10"/>
<ItemData ItemOID="IT.ADAE.ADURU" Value="DAYS"/>
<ItemData ItemOID="IT.ADAE.AEDUR" Value="P10DT5H30M"/>
<ItemData ItemOID="IT.ADAE.TRTEMFL" Value="Y"/>
<ItemData ItemOID="IT.ADAE.DOSEAEON" Value="60"/>
<ItemData ItemOID="IT.ADAE.DOSAEONU" Value="MG"/>
<ItemData ItemOID="IT.ADAE.DOSECUM" Value="180"/>
<ItemData ItemOID="IT.ADAE.DOSECUMU" Value="MG"/>
<ItemData ItemOID="IT.ADAE.AESER" Value="N"/>
<ItemData ItemOID="IT.ADAE.AESEV" Value="MODERATE"/>
<ItemData ItemOID="IT.ADAE.AESEVN" Value="2"/>
<ItemData ItemOID="IT.ADAE.ASEV" Value="Moderate"/>
<ItemData ItemOID="IT.ADAE.ASEVN" Value="2"/>
<ItemData ItemOID="IT.ADAE.SEVGR1" Value="Non-severe"/>
<ItemData ItemOID="IT.ADAE.SEVGR1N" Value="1"/>
<ItemData ItemOID="IT.ADAE.AREL" Value="Other"/>
<ItemData ItemOID="IT.ADAE.AETOXGR" Value="2"/>
<ItemData ItemOID="IT.ADAE.AETOXGRN" Value="2"/>
<ItemData ItemOID="IT.ADAE.AEACN" Value="DOSE REDUCED"/>
<ItemData ItemOID="IT.ADAE.AGE" Value="51"/>
<ItemData ItemOID="IT.ADAE.SEX" Value="M"/>
<ItemData ItemOID="IT.ADAE.TRTP" Value="TRT C"/>
<ItemData ItemOID="IT.ADAE.TRTEDT" Value="17624"/>
<ItemData ItemOID="IT.ADAE.TRTSDT" Value="17582"/>
<ItemData ItemOID="IT.ADAE.SAFFL" Value="Y"/>
<ItemData ItemOID="IT.ADAE.TRTPN" Value="3"/>
</ItemGroupData>
<ItemGroupData ItemGroupOID="IG.ADAE" data:ItemGroupDataSeq="7">
<ItemData ItemOID="IT.ADAE.STUDYID" Value="SASCSTDEMODATA"/>
<ItemData ItemOID="IT.ADAE.USUBJID" Value="S001P005"/>
<ItemData ItemOID="IT.ADAE.AESEQ" Value="6"/>
<ItemData ItemOID="IT.ADAE.AETERM" Value="RASH"/>
<ItemData ItemOID="IT.ADAE.AEDECOD" Value="Rash"/>
<ItemData ItemOID="IT.ADAE.AEBODSYS" Value="SKIN AND SUBCUTANEOUS TISSUE DISORDERS"/>
<ItemData ItemOID="IT.ADAE.AEBDSYCD" Value="10040785"/>
<ItemData ItemOID="IT.ADAE.AELLT" Value="Rash"/>
<ItemData ItemOID="IT.ADAE.AELLTCD" Value="10037844"/>
<ItemData ItemOID="IT.ADAE.AEPTCD" Value="10037844"/>
<ItemData ItemOID="IT.ADAE.AEHLT" Value="Rashes, eruptions and exanthems NEC"/>
<ItemData ItemOID="IT.ADAE.AEHLTCD" Value="10052566"/>
<ItemData ItemOID="IT.ADAE.AEHLGT" Value="Epidermal and dermal conditions"/>
<ItemData ItemOID="IT.ADAE.AEHLGTCD" Value="10014982"/>
<ItemData ItemOID="IT.ADAE.AESOC" Value="Skin and subcutaneous tissue disorders"/>
<ItemData ItemOID="IT.ADAE.AESOCCD" Value="10040785"/>
<ItemData ItemOID="IT.ADAE.AESTDTC" Value="2008-03-20"/>
<ItemData ItemOID="IT.ADAE.ASTDTM" Value="1521633600"/>
<ItemData ItemOID="IT.ADAE.ASTTMF" Value="H"/>
<ItemData ItemOID="IT.ADAE.AEENDTC" Value="2008-03-31T14:00"/>
<ItemData ItemOID="IT.ADAE.AENDTM" Value="1522591200"/>
<ItemData ItemOID="IT.ADAE.ASTDY" Value="30"/>
<ItemData ItemOID="IT.ADAE.AENDY" Value="41"/>
<ItemData ItemOID="IT.ADAE.ADURN" Value="11"/>
<ItemData ItemOID="IT.ADAE.ADURU" Value="DAYS"/>
<ItemData ItemOID="IT.ADAE.AEDUR" Value="P11D"/>
<ItemData ItemOID="IT.ADAE.TRTEMFL" Value="Y"/>
<ItemData ItemOID="IT.ADAE.DOSEAEON" Value="60"/>
<ItemData ItemOID="IT.ADAE.DOSAEONU" Value="MG"/>
<ItemData ItemOID="IT.ADAE.DOSECUM" Value="180"/>
<ItemData ItemOID="IT.ADAE.DOSECUMU" Value="MG"/>
<ItemData ItemOID="IT.ADAE.AESER" Value="N"/>
<ItemData ItemOID="IT.ADAE.AESEV" Value="MODERATE"/>
<ItemData ItemOID="IT.ADAE.AESEVN" Value="2"/>
<ItemData ItemOID="IT.ADAE.ASEV" Value="Moderate"/>
<ItemData ItemOID="IT.ADAE.ASEVN" Value="2"/>
<ItemData ItemOID="IT.ADAE.SEVGR1" Value="Non-severe"/>
<ItemData ItemOID="IT.ADAE.SEVGR1N" Value="1"/>
<ItemData ItemOID="IT.ADAE.AEREL" Value="LIKELY RELATED"/>
<ItemData ItemOID="IT.ADAE.AERELN" Value="2"/>
<ItemData ItemOID="IT.ADAE.AREL" Value="Likely Related"/>
<ItemData ItemOID="IT.ADAE.ARELN" Value="2"/>
<ItemData ItemOID="IT.ADAE.AETOXGR" Value="2"/>
<ItemData ItemOID="IT.ADAE.AETOXGRN" Value="2"/>
<ItemData ItemOID="IT.ADAE.AEACN" Value="NOT APPLICABLE"/>
<ItemData ItemOID="IT.ADAE.CQ01NAM" Value="Pruritic or NOS rashes (CQ)"/>
<ItemData ItemOID="IT.ADAE.AGE" Value="51"/>
<ItemData ItemOID="IT.ADAE.SEX" Value="M"/>
<ItemData ItemOID="IT.ADAE.TRTP" Value="TRT C"/>
<ItemData ItemOID="IT.ADAE.TRTEDT" Value="17624"/>
<ItemData ItemOID="IT.ADAE.TRTSDT" Value="17582"/>
<ItemData ItemOID="IT.ADAE.SAFFL" Value="Y"/>
<ItemData ItemOID="IT.ADAE.TRTPN" Value="3"/>
</ItemGroupData>
<ItemGroupData ItemGroupOID="IG.ADAE" data:ItemGroupDataSeq="8">
<ItemData ItemOID="IT.ADAE.STUDYID" Value="SASCSTDEMODATA"/>
<ItemData ItemOID="IT.ADAE.USUBJID" Value="S001P007"/>
<ItemData ItemOID="IT.ADAE.AESEQ" Value="9"/>
<ItemData ItemOID="IT.ADAE.AETERM" Value="HEADACHE"/>
<ItemData ItemOID="IT.ADAE.AEDECOD" Value="Headache"/>
<ItemData ItemOID="IT.ADAE.AEBODSYS" Value="NERVOUS SYSTEM DISORDERS"/>
<ItemData ItemOID="IT.ADAE.AEBDSYCD" Value="10029205"/>
<ItemData ItemOID="IT.ADAE.AELLT" Value="Headache"/>
<ItemData ItemOID="IT.ADAE.AELLTCD" Value="10019211"/>
<ItemData ItemOID="IT.ADAE.AEPTCD" Value="10019211"/>
<ItemData ItemOID="IT.ADAE.AEHLT" Value="Headaches NEC"/>
<ItemData ItemOID="IT.ADAE.AEHLTCD" Value="10019233"/>
<ItemData ItemOID="IT.ADAE.AEHLGT" Value="Headaches"/>
<ItemData ItemOID="IT.ADAE.AEHLGTCD" Value="10019231"/>
<ItemData ItemOID="IT.ADAE.AESOC" Value="Nervous system disorders"/>
<ItemData ItemOID="IT.ADAE.AESOCCD" Value="10029205"/>
<ItemData ItemOID="IT.ADAE.AESTDTC" Value="2008-03-18"/>
<ItemData ItemOID="IT.ADAE.ASTDTM" Value="1521460800"/>
<ItemData ItemOID="IT.ADAE.ASTTMF" Value="H"/>
<ItemData ItemOID="IT.ADAE.AEENDTC" Value="2008-03-25T12:30"/>
<ItemData ItemOID="IT.ADAE.AENDTM" Value="1522067400"/>
<ItemData ItemOID="IT.ADAE.ASTDY" Value="20"/>
<ItemData ItemOID="IT.ADAE.AENDY" Value="27"/>
<ItemData ItemOID="IT.ADAE.ADURN" Value="7"/>
<ItemData ItemOID="IT.ADAE.ADURU" Value="DAYS"/>
<ItemData ItemOID="IT.ADAE.AEDUR" Value="P7D"/>
<ItemData ItemOID="IT.ADAE.TRTEMFL" Value="Y"/>
<ItemData ItemOID="IT.ADAE.DOSEAEON" Value="120"/>
<ItemData ItemOID="IT.ADAE.DOSAEONU" Value="MG"/>
<ItemData ItemOID="IT.ADAE.DOSECUM" Value="120"/>
<ItemData ItemOID="IT.ADAE.DOSECUMU" Value="MG"/>
<ItemData ItemOID="IT.ADAE.AESER" Value="N"/>
<ItemData ItemOID="IT.ADAE.AESEV" Value="MILD"/>
<ItemData ItemOID="IT.ADAE.AESEVN" Value="1"/>
<ItemData ItemOID="IT.ADAE.ASEV" Value="Mild"/>
<ItemData ItemOID="IT.ADAE.ASEVN" Value="1"/>
<ItemData ItemOID="IT.ADAE.SEVGR1" Value="Non-severe"/>
<ItemData ItemOID="IT.ADAE.SEVGR1N" Value="1"/>
<ItemData ItemOID="IT.ADAE.AEREL" Value="NOT RELATED"/>
<ItemData ItemOID="IT.ADAE.AERELN" Value="1"/>
<ItemData ItemOID="IT.ADAE.AREL" Value="Not Related"/>
<ItemData ItemOID="IT.ADAE.ARELN" Value="1"/>
<ItemData ItemOID="IT.ADAE.AETOXGR" Value="1"/>
<ItemData ItemOID="IT.ADAE.AETOXGRN" Value="1"/>
<ItemData ItemOID="IT.ADAE.AEACN" Value="NOT APPLICABLE"/>
<ItemData ItemOID="IT.ADAE.AGE" Value="34"/>
<ItemData ItemOID="IT.ADAE.SEX" Value="F"/>
<ItemData ItemOID="IT.ADAE.TRTP" Value="TRT C"/>
<ItemData ItemOID="IT.ADAE.TRTEDT" Value="17632"/>
<ItemData ItemOID="IT.ADAE.TRTSDT" Value="17590"/>
<ItemData ItemOID="IT.ADAE.SAFFL" Value="Y"/>
<ItemData ItemOID="IT.ADAE.TRTPN" Value="3"/>
</ItemGroupData>
<ItemGroupData ItemGroupOID="IG.ADAE" data:ItemGroupDataSeq="9">
<ItemData ItemOID="IT.ADAE.STUDYID" Value="SASCSTDEMODATA"/>
<ItemData ItemOID="IT.ADAE.USUBJID" Value="S001P007"/>
<ItemData ItemOID="IT.ADAE.AESEQ" Value="8"/>
<ItemData ItemOID="IT.ADAE.AETERM" Value="HEARTBURN"/>
<ItemData ItemOID="IT.ADAE.AEDECOD" Value="Dyspepsia"/>
<ItemData ItemOID="IT.ADAE.AEBODSYS" Value="GASTROINTESTINAL DISORDERS"/>
<ItemData ItemOID="IT.ADAE.AEBDSYCD" Value="10017947"/>
<ItemData ItemOID="IT.ADAE.AELLT" Value="Heartburn"/>
<ItemData ItemOID="IT.ADAE.AELLTCD" Value="10019326"/>
<ItemData ItemOID="IT.ADAE.AEPTCD" Value="10013946"/>
<ItemData ItemOID="IT.ADAE.AEHLT" Value="Dyspeptic signs and symptoms"/>
<ItemData ItemOID="IT.ADAE.AEHLTCD" Value="10013949"/>
<ItemData ItemOID="IT.ADAE.AEHLGT" Value="Gastrointestinal signs and symptoms"/>
<ItemData ItemOID="IT.ADAE.AEHLGTCD" Value="10018012"/>
<ItemData ItemOID="IT.ADAE.AESOC" Value="Gastrointestinal disorders"/>
<ItemData ItemOID="IT.ADAE.AESOCCD" Value="10017947"/>
<ItemData ItemOID="IT.ADAE.AESTDTC" Value="2008-03-14T06:00"/>
<ItemData ItemOID="IT.ADAE.ASTDTM" Value="1521093600"/>
<ItemData ItemOID="IT.ADAE.AEENDTC" Value="2008-03-22T14:00"/>
<ItemData ItemOID="IT.ADAE.AENDTM" Value="1521813600"/>
<ItemData ItemOID="IT.ADAE.ASTDY" Value="16"/>
<ItemData ItemOID="IT.ADAE.AENDY" Value="24"/>
<ItemData ItemOID="IT.ADAE.ADURN" Value="8"/>
<ItemData ItemOID="IT.ADAE.ADURU" Value="DAYS"/>
<ItemData ItemOID="IT.ADAE.AEDUR" Value="P8DT8H"/>
<ItemData ItemOID="IT.ADAE.AOCCFL" Value="Y"/>
<ItemData ItemOID="IT.ADAE.AOCCIFL" Value="Y"/>
<ItemData ItemOID="IT.ADAE.DOSEAEON" Value="120"/>
<ItemData ItemOID="IT.ADAE.DOSAEONU" Value="MG"/>
<ItemData ItemOID="IT.ADAE.DOSECUM" Value="120"/>
<ItemData ItemOID="IT.ADAE.DOSECUMU" Value="MG"/>
<ItemData ItemOID="IT.ADAE.AESER" Value="N"/>
<ItemData ItemOID="IT.ADAE.AESEV" Value="SEVERE"/>
<ItemData ItemOID="IT.ADAE.AESEVN" Value="3"/>
<ItemData ItemOID="IT.ADAE.ASEV" Value="Severe"/>
<ItemData ItemOID="IT.ADAE.ASEVN" Value="3"/>
<ItemData ItemOID="IT.ADAE.SEVGR1" Value="Severe"/>
<ItemData ItemOID="IT.ADAE.SEVGR1N" Value="2"/>
<ItemData ItemOID="IT.ADAE.AEREL" Value="NOT RELATED"/>
<ItemData ItemOID="IT.ADAE.AERELN" Value="1"/>
<ItemData ItemOID="IT.ADAE.AREL" Value="Not Related"/>
<ItemData ItemOID="IT.ADAE.ARELN" Value="1"/>
<ItemData ItemOID="IT.ADAE.AETOXGR" Value="3"/>
<ItemData ItemOID="IT.ADAE.AETOXGRN" Value="3"/>
<ItemData ItemOID="IT.ADAE.AEACN" Value="NOT APPLICABLE"/>
<ItemData ItemOID="IT.ADAE.AGE" Value="34"/>
<ItemData ItemOID="IT.ADAE.SEX" Value="F"/>
<ItemData ItemOID="IT.ADAE.TRTP" Value="TRT C"/>
<ItemData ItemOID="IT.ADAE.TRTEDT" Value="17632"/>
<ItemData ItemOID="IT.ADAE.TRTSDT" Value="17590"/>
<ItemData ItemOID="IT.ADAE.SAFFL" Value="Y"/>
<ItemData ItemOID="IT.ADAE.TRTPN" Value="3"/>
</ItemGroupData>
<ItemGroupData ItemGroupOID="IG.ADAE" data:ItemGroupDataSeq="10">
<ItemData ItemOID="IT.ADAE.STUDYID" Value="SASCSTDEMODATA"/>
<ItemData ItemOID="IT.ADAE.USUBJID" Value="S001P008"/>
<ItemData ItemOID="IT.ADAE.AESEQ" Value="11"/>
<ItemData ItemOID="IT.ADAE.AEDECOD" Value="Rash pruritic"/>
<ItemData ItemOID="IT.ADAE.AEBODSYS" Value="SKIN AND SUBCUTANEOUS TISSUE DISORDERS"/>
<ItemData ItemOID="IT.ADAE.AEBDSYCD" Value="10040785"/>
<ItemData ItemOID="IT.ADAE.AEPTCD" Value="10037884"/>
<ItemData ItemOID="IT.ADAE.AEHLT" Value="Pruritus NEC"/>
<ItemData ItemOID="IT.ADAE.AEHLTCD" Value="10049293"/>
<ItemData ItemOID="IT.ADAE.AEHLGT" Value="Epidermal and dermal conditions"/>
<ItemData ItemOID="IT.ADAE.AEHLGTCD" Value="10014982"/>
<ItemData ItemOID="IT.ADAE.AESOC" Value="Skin and subcutaneous tissue disorders"/>
<ItemData ItemOID="IT.ADAE.AESOCCD" Value="10040785"/>
<ItemData ItemOID="IT.ADAE.AESTDTC" Value="2008-03-01T16:30"/>
<ItemData ItemOID="IT.ADAE.ASTDTM" Value="1520008200"/>
<ItemData ItemOID="IT.ADAE.AEENDTC" Value="2008-03-10T17:00"/>
<ItemData ItemOID="IT.ADAE.AENDTM" Value="1520787600"/>
<ItemData ItemOID="IT.ADAE.ASTDY" Value="3"/>
<ItemData ItemOID="IT.ADAE.AENDY" Value="12"/>
<ItemData ItemOID="IT.ADAE.ADURN" Value="9"/>
<ItemData ItemOID="IT.ADAE.ADURU" Value="DAYS"/>
<ItemData ItemOID="IT.ADAE.AEDUR" Value="P9DT0H30M"/>
<ItemData ItemOID="IT.ADAE.AOCCFL" Value="Y"/>
<ItemData ItemOID="IT.ADAE.DOSEAEON" Value="120"/>
<ItemData ItemOID="IT.ADAE.DOSAEONU" Value="MG"/>
<ItemData ItemOID="IT.ADAE.DOSECUM" Value="120"/>
<ItemData ItemOID="IT.ADAE.DOSECUMU" Value="MG"/>
<ItemData ItemOID="IT.ADAE.AESEV" Value="HURTS"/>
<ItemData ItemOID="IT.ADAE.ASEV" Value="Other"/>
<ItemData ItemOID="IT.ADAE.AEREL" Value="RELATED"/>
<ItemData ItemOID="IT.ADAE.AERELN" Value="3"/>
<ItemData ItemOID="IT.ADAE.AREL" Value="Related"/>
<ItemData ItemOID="IT.ADAE.ARELN" Value="3"/>
<ItemData ItemOID="IT.ADAE.AETOXGR" Value="2"/>
<ItemData ItemOID="IT.ADAE.AETOXGRN" Value="2"/>
<ItemData ItemOID="IT.ADAE.AEACN" Value="WITHDRAWN"/>
<ItemData ItemOID="IT.ADAE.AGE" Value="34"/>
<ItemData ItemOID="IT.ADAE.SEX" Value="F"/>
<ItemData ItemOID="IT.ADAE.TRTP" Value="TRT C"/>
<ItemData ItemOID="IT.ADAE.TRTEDT" Value="17604"/>
<ItemData ItemOID="IT.ADAE.TRTSDT" Value="17591"/>
<ItemData ItemOID="IT.ADAE.SAFFL" Value="Y"/>
<ItemData ItemOID="IT.ADAE.TRTPN" Value="3"/>
</ItemGroupData>
<ItemGroupData ItemGroupOID="IG.ADAE" data:ItemGroupDataSeq="11">
<ItemData ItemOID="IT.ADAE.STUDYID" Value="SASCSTDEMODATA"/>
<ItemData ItemOID="IT.ADAE.USUBJID" Value="S001P008"/>
<ItemData ItemOID="IT.ADAE.AESEQ" Value="10"/>
<ItemData ItemOID="IT.ADAE.AETERM" Value="ABDOMINAL CRAMP"/>
<ItemData ItemOID="IT.ADAE.AEDECOD" Value="Abdominal pain"/>
<ItemData ItemOID="IT.ADAE.AEBODSYS" Value="GASTROINTESTINAL DISORDERS"/>
<ItemData ItemOID="IT.ADAE.AEBDSYCD" Value="10017947"/>
<ItemData ItemOID="IT.ADAE.AELLT" Value="Abdominal cramp"/>
<ItemData ItemOID="IT.ADAE.AELLTCD" Value="10000056"/>
<ItemData ItemOID="IT.ADAE.AEPTCD" Value="10000081"/>
<ItemData ItemOID="IT.ADAE.AEHLT" Value="Gastrointestinal and abdominal pains (excl oral and throat)"/>
<ItemData ItemOID="IT.ADAE.AEHLTCD" Value="10017926"/>
<ItemData ItemOID="IT.ADAE.AEHLGT" Value="Gastrointestinal signs and symptoms"/>
<ItemData ItemOID="IT.ADAE.AEHLGTCD" Value="10018012"/>
<ItemData ItemOID="IT.ADAE.AESOC" Value="Gastrointestinal disorders"/>
<ItemData ItemOID="IT.ADAE.AESOCCD" Value="10017947"/>
<ItemData ItemOID="IT.ADAE.AESTDTC" Value="2008-03-03"/>
<ItemData ItemOID="IT.ADAE.ASTDTM" Value="1520164800"/>
<ItemData ItemOID="IT.ADAE.ASTTMF" Value="H"/>
<ItemData ItemOID="IT.ADAE.AEENDTC" Value="2008-03-04T04:30"/>
<ItemData ItemOID="IT.ADAE.AENDTM" Value="1520224200"/>
<ItemData ItemOID="IT.ADAE.ASTDY" Value="5"/>
<ItemData ItemOID="IT.ADAE.AENDY" Value="6"/>
<ItemData ItemOID="IT.ADAE.ADURN" Value="1"/>
<ItemData ItemOID="IT.ADAE.ADURU" Value="DAYS"/>
<ItemData ItemOID="IT.ADAE.AEDUR" Value="P1D"/>
<ItemData ItemOID="IT.ADAE.AOCCIFL" Value="Y"/>
<ItemData ItemOID="IT.ADAE.DOSEAEON" Value="120"/>
<ItemData ItemOID="IT.ADAE.DOSAEONU" Value="MG"/>
<ItemData ItemOID="IT.ADAE.DOSECUM" Value="120"/>
<ItemData ItemOID="IT.ADAE.DOSECUMU" Value="MG"/>
<ItemData ItemOID="IT.ADAE.AESER" Value="N"/>
<ItemData ItemOID="IT.ADAE.AESEV" Value="MILD"/>
<ItemData ItemOID="IT.ADAE.AESEVN" Value="1"/>
<ItemData ItemOID="IT.ADAE.ASEV" Value="Mild"/>
<ItemData ItemOID="IT.ADAE.ASEVN" Value="1"/>
<ItemData ItemOID="IT.ADAE.SEVGR1" Value="Non-severe"/>
<ItemData ItemOID="IT.ADAE.SEVGR1N" Value="1"/>
<ItemData ItemOID="IT.ADAE.AEREL" Value="NOT RELATED"/>
<ItemData ItemOID="IT.ADAE.AERELN" Value="1"/>
<ItemData ItemOID="IT.ADAE.AREL" Value="Not Related"/>
<ItemData ItemOID="IT.ADAE.ARELN" Value="1"/>
<ItemData ItemOID="IT.ADAE.AETOXGR" Value="1"/>
<ItemData ItemOID="IT.ADAE.AETOXGRN" Value="1"/>
<ItemData ItemOID="IT.ADAE.AEACN" Value="NOT APPLICABLE"/>
<ItemData ItemOID="IT.ADAE.AGE" Value="34"/>
<ItemData ItemOID="IT.ADAE.SEX" Value="F"/>
<ItemData ItemOID="IT.ADAE.TRTP" Value="TRT C"/>
<ItemData ItemOID="IT.ADAE.TRTEDT" Value="17604"/>
<ItemData ItemOID="IT.ADAE.TRTSDT" Value="17591"/>
<ItemData ItemOID="IT.ADAE.SAFFL" Value="Y"/>
<ItemData ItemOID="IT.ADAE.TRTPN" Value="3"/>
</ItemGroupData>
<ItemGroupData ItemGroupOID="IG.ADAE" data:ItemGroupDataSeq="12">
<ItemData ItemOID="IT.ADAE.STUDYID" Value="SASCSTDEMODATA"/>
<ItemData ItemOID="IT.ADAE.USUBJID" Value="S001P010"/>
<ItemData ItemOID="IT.ADAE.AESEQ" Value="12"/>
<ItemData ItemOID="IT.ADAE.AETERM" Value="HEARTBURN-LIKE DYSPEPSIA"/>
<ItemData ItemOID="IT.ADAE.AEDECOD" Value="Dyspepsia"/>
<ItemData ItemOID="IT.ADAE.AEBODSYS" Value="GASTROINTESTINAL DISORDERS"/>
<ItemData ItemOID="IT.ADAE.AEBDSYCD" Value="10017947"/>
<ItemData ItemOID="IT.ADAE.AELLT" Value="Heartburn-like dyspepsia"/>
<ItemData ItemOID="IT.ADAE.AELLTCD" Value="10019328"/>
<ItemData ItemOID="IT.ADAE.AEPTCD" Value="10013946"/>
<ItemData ItemOID="IT.ADAE.AEHLT" Value="Dyspeptic signs and symptoms"/>
<ItemData ItemOID="IT.ADAE.AEHLTCD" Value="10013949"/>
<ItemData ItemOID="IT.ADAE.AEHLGT" Value="Gastrointestinal signs and symptoms"/>
<ItemData ItemOID="IT.ADAE.AEHLGTCD" Value="10018012"/>
<ItemData ItemOID="IT.ADAE.AESOC" Value="Gastrointestinal disorders"/>
<ItemData ItemOID="IT.ADAE.AESOCCD" Value="10017947"/>
<ItemData ItemOID="IT.ADAE.AESTDTC" Value="2008-04-13T04:00"/>
<ItemData ItemOID="IT.ADAE.ASTDTM" Value="1523678400"/>
<ItemData ItemOID="IT.ADAE.AEENDTC" Value="2008-04-14T14:30"/>
<ItemData ItemOID="IT.ADAE.AENDTM" Value="1523802600"/>
<ItemData ItemOID="IT.ADAE.ASTDY" Value="41"/>
<ItemData ItemOID="IT.ADAE.AENDY" Value="42"/>
<ItemData ItemOID="IT.ADAE.ADURN" Value="1"/>
<ItemData ItemOID="IT.ADAE.ADURU" Value="DAYS"/>
<ItemData ItemOID="IT.ADAE.AEDUR" Value="P1DT10H30M"/>
<ItemData ItemOID="IT.ADAE.TRTEMFL" Value="Y"/>
<ItemData ItemOID="IT.ADAE.AOCCFL" Value="Y"/>
<ItemData ItemOID="IT.ADAE.AOCCIFL" Value="Y"/>
<ItemData ItemOID="IT.ADAE.DOSEAEON" Value="40"/>
<ItemData ItemOID="IT.ADAE.DOSAEONU" Value="MG"/>
<ItemData ItemOID="IT.ADAE.DOSECUM" Value="40"/>
<ItemData ItemOID="IT.ADAE.DOSECUMU" Value="MG"/>
<ItemData ItemOID="IT.ADAE.AESER" Value="N"/>
<ItemData ItemOID="IT.ADAE.AESEV" Value="MODERATE"/>
<ItemData ItemOID="IT.ADAE.AESEVN" Value="2"/>
<ItemData ItemOID="IT.ADAE.ASEV" Value="Moderate"/>
<ItemData ItemOID="IT.ADAE.ASEVN" Value="2"/>
<ItemData ItemOID="IT.ADAE.SEVGR1" Value="Non-severe"/>
<ItemData ItemOID="IT.ADAE.SEVGR1N" Value="1"/>
<ItemData ItemOID="IT.ADAE.AEREL" Value="NOT RELATED"/>
<ItemData ItemOID="IT.ADAE.AERELN" Value="1"/>
<ItemData ItemOID="IT.ADAE.AREL" Value="Not Related"/>
<ItemData ItemOID="IT.ADAE.ARELN" Value="1"/>
<ItemData ItemOID="IT.ADAE.AETOXGR" Value="2"/>
<ItemData ItemOID="IT.ADAE.AETOXGRN" Value="2"/>
<ItemData ItemOID="IT.ADAE.AEACN" Value="NOT APPLICABLE"/>
<ItemData ItemOID="IT.ADAE.AGE" Value="27"/>
<ItemData ItemOID="IT.ADAE.SEX" Value="M"/>
<ItemData ItemOID="IT.ADAE.TRTP" Value="TRT A"/>
<ItemData ItemOID="IT.ADAE.TRTEDT" Value="17637"/>
<ItemData ItemOID="IT.ADAE.TRTSDT" Value="17595"/>
<ItemData ItemOID="IT.ADAE.SAFFL" Value="Y"/>
<ItemData ItemOID="IT.ADAE.TRTPN" Value="1"/>
</ItemGroupData>
<ItemGroupData ItemGroupOID="IG.ADAE" data:ItemGroupDataSeq="13">
<ItemData ItemOID="IT.ADAE.STUDYID" Value="SASCSTDEMODATA"/>
<ItemData ItemOID="IT.ADAE.USUBJID" Value="S001P011"/>
<ItemData ItemOID="IT.ADAE.AESEQ" Value="13"/>
<ItemData ItemOID="IT.ADAE.AETERM" Value="DIARRHEA"/>
<ItemData ItemOID="IT.ADAE.AEDECOD" Value="Diarrhoea"/>
<ItemData ItemOID="IT.ADAE.AEBODSYS" Value="GASTROINTESTINAL DISORDERS"/>
<ItemData ItemOID="IT.ADAE.AEBDSYCD" Value="10017947"/>
<ItemData ItemOID="IT.ADAE.AELLT" Value="Diarrhea"/>
<ItemData ItemOID="IT.ADAE.AELLTCD" Value="10012727"/>
<ItemData ItemOID="IT.ADAE.AEPTCD" Value="10012735"/>
<ItemData ItemOID="IT.ADAE.AEHLT" Value="Diarrhoea (excl infective)"/>
<ItemData ItemOID="IT.ADAE.AEHLTCD" Value="10012736"/>
<ItemData ItemOID="IT.ADAE.AEHLGT" Value="Gastrointestinal motility and defaecation conditions"/>
<ItemData ItemOID="IT.ADAE.AEHLGTCD" Value="10017977"/>
<ItemData ItemOID="IT.ADAE.AESOC" Value="Gastrointestinal disorders"/>
<ItemData ItemOID="IT.ADAE.AESOCCD" Value="10017947"/>
<ItemData ItemOID="IT.ADAE.AESTDTC" Value="2008-03-23T22:30"/>
<ItemData ItemOID="IT.ADAE.ASTDTM" Value="1521930600"/>
<ItemData ItemOID="IT.ADAE.AEENDTC" Value="2008-04-03"/>
<ItemData ItemOID="IT.ADAE.AENDTM" Value="1522843200"/>
<ItemData ItemOID="IT.ADAE.AENTMF" Value="H"/>
<ItemData ItemOID="IT.ADAE.ASTDY" Value="18"/>
<ItemData ItemOID="IT.ADAE.AENDY" Value="29"/>
<ItemData ItemOID="IT.ADAE.ADURN" Value="11"/>
<ItemData ItemOID="IT.ADAE.ADURU" Value="DAYS"/>
<ItemData ItemOID="IT.ADAE.AEDUR" Value="P11D"/>
<ItemData ItemOID="IT.ADAE.DOSEAEON" Value="120"/>
<ItemData ItemOID="IT.ADAE.DOSAEONU" Value="MG"/>
<ItemData ItemOID="IT.ADAE.DOSECUM" Value="120"/>
<ItemData ItemOID="IT.ADAE.DOSECUMU" Value="MG"/>
<ItemData ItemOID="IT.ADAE.AESER" Value="N"/>
<ItemData ItemOID="IT.ADAE.ASEV" Value="Other"/>
<ItemData ItemOID="IT.ADAE.AEREL" Value="NOT RELATED"/>
<ItemData ItemOID="IT.ADAE.AERELN" Value="1"/>
<ItemData ItemOID="IT.ADAE.AREL" Value="Not Related"/>
<ItemData ItemOID="IT.ADAE.ARELN" Value="1"/>
<ItemData ItemOID="IT.ADAE.AEACN" Value="NOT APPLICABLE"/>
<ItemData ItemOID="IT.ADAE.SMQ01NAM" Value="Gastrointestinal nonspecific symptoms and therapeutic procedures (SMQ)"/>
<ItemData ItemOID="IT.ADAE.SMQ01CD" Value="20000140"/>
<ItemData ItemOID="IT.ADAE.SMQ01SC" Value="NARROW"/>
<ItemData ItemOID="IT.ADAE.SMQ01SCN" Value="2"/>
<ItemData ItemOID="IT.ADAE.AGE" Value="53"/>
<ItemData ItemOID="IT.ADAE.SEX" Value="M"/>
<ItemData ItemOID="IT.ADAE.TRTP" Value="TRT C"/>
<ItemData ItemOID="IT.ADAE.TRTEDT" Value="17625"/>
<ItemData ItemOID="IT.ADAE.TRTSDT" Value="17598"/>
<ItemData ItemOID="IT.ADAE.SAFFL" Value="Y"/>
<ItemData ItemOID="IT.ADAE.TRTPN" Value="3"/>
</ItemGroupData>
<ItemGroupData ItemGroupOID="IG.ADAE" data:ItemGroupDataSeq="14">
<ItemData ItemOID="IT.ADAE.STUDYID" Value="SASCSTDEMODATA"/>
<ItemData ItemOID="IT.ADAE.USUBJID" Value="S001P011"/>
<ItemData ItemOID="IT.ADAE.AESEQ" Value="15"/>
<ItemData ItemOID="IT.ADAE.AETERM" Value="RASH"/>
<ItemData ItemOID="IT.ADAE.AEDECOD" Value="Rash"/>
<ItemData ItemOID="IT.ADAE.AEBODSYS" Value="SKIN AND SUBCUTANEOUS TISSUE DISORDERS"/>
<ItemData ItemOID="IT.ADAE.AEBDSYCD" Value="10040785"/>
<ItemData ItemOID="IT.ADAE.AELLT" Value="Rash"/>
<ItemData ItemOID="IT.ADAE.AELLTCD" Value="10037844"/>
<ItemData ItemOID="IT.ADAE.AEPTCD" Value="10037844"/>
<ItemData ItemOID="IT.ADAE.AEHLT" Value="Rashes, eruptions and exanthems NEC"/>
<ItemData ItemOID="IT.ADAE.AEHLTCD" Value="10052566"/>
<ItemData ItemOID="IT.ADAE.AEHLGT" Value="Epidermal and dermal conditions"/>
<ItemData ItemOID="IT.ADAE.AEHLGTCD" Value="10014982"/>
<ItemData ItemOID="IT.ADAE.AESOC" Value="Skin and subcutaneous tissue disorders"/>
<ItemData ItemOID="IT.ADAE.AESOCCD" Value="10040785"/>
<ItemData ItemOID="IT.ADAE.AESTDTC" Value="2008-03-11T08:00"/>
<ItemData ItemOID="IT.ADAE.ASTDTM" Value="1520841600"/>
<ItemData ItemOID="IT.ADAE.AEENDTC" Value="2008-03-17T20:00"/>
<ItemData ItemOID="IT.ADAE.AENDTM" Value="1521403200"/>
<ItemData ItemOID="IT.ADAE.ASTDY" Value="5"/>
<ItemData ItemOID="IT.ADAE.AENDY" Value="11"/>
<ItemData ItemOID="IT.ADAE.ADURN" Value="6"/>
<ItemData ItemOID="IT.ADAE.ADURU" Value="DAYS"/>
<ItemData ItemOID="IT.ADAE.AEDUR" Value="P6DT12H"/>
<ItemData ItemOID="IT.ADAE.TRTEMFL" Value="Y"/>
<ItemData ItemOID="IT.ADAE.AOCCFL" Value="Y"/>
<ItemData ItemOID="IT.ADAE.AOCCIFL" Value="Y"/>
<ItemData ItemOID="IT.ADAE.DOSEAEON" Value="120"/>
<ItemData ItemOID="IT.ADAE.DOSAEONU" Value="MG"/>
<ItemData ItemOID="IT.ADAE.DOSECUM" Value="120"/>
<ItemData ItemOID="IT.ADAE.DOSECUMU" Value="MG"/>
<ItemData ItemOID="IT.ADAE.AESER" Value="N"/>
<ItemData ItemOID="IT.ADAE.AESEV" Value="MODERATE"/>
<ItemData ItemOID="IT.ADAE.AESEVN" Value="2"/>
<ItemData ItemOID="IT.ADAE.ASEV" Value="Moderate"/>
<ItemData ItemOID="IT.ADAE.ASEVN" Value="2"/>
<ItemData ItemOID="IT.ADAE.SEVGR1" Value="Non-severe"/>
<ItemData ItemOID="IT.ADAE.SEVGR1N" Value="1"/>
<ItemData ItemOID="IT.ADAE.AEREL" Value="RELATED"/>
<ItemData ItemOID="IT.ADAE.AERELN" Value="3"/>
<ItemData ItemOID="IT.ADAE.AREL" Value="Related"/>
<ItemData ItemOID="IT.ADAE.ARELN" Value="3"/>
<ItemData ItemOID="IT.ADAE.AETOXGR" Value="2"/>
<ItemData ItemOID="IT.ADAE.AETOXGRN" Value="2"/>
<ItemData ItemOID="IT.ADAE.AEACN" Value="NOT APPLICABLE"/>
<ItemData ItemOID="IT.ADAE.SMQ01NAM" Value="Gastrointestinal nonspecific symptoms and therapeutic procedures (SMQ)"/>
<ItemData ItemOID="IT.ADAE.SMQ01CD" Value="20000140"/>
<ItemData ItemOID="IT.ADAE.SMQ01SC" Value="NARROW"/>
<ItemData ItemOID="IT.ADAE.SMQ01SCN" Value="2"/>
<ItemData ItemOID="IT.ADAE.CQ01NAM" Value="Pruritic or NOS rashes (CQ)"/>
<ItemData ItemOID="IT.ADAE.AGE" Value="53"/>
<ItemData ItemOID="IT.ADAE.SEX" Value="M"/>
<ItemData ItemOID="IT.ADAE.TRTP" Value="TRT C"/>
<ItemData ItemOID="IT.ADAE.TRTEDT" Value="17625"/>
<ItemData ItemOID="IT.ADAE.TRTSDT" Value="17598"/>
<ItemData ItemOID="IT.ADAE.SAFFL" Value="Y"/>
<ItemData ItemOID="IT.ADAE.TRTPN" Value="3"/>
</ItemGroupData>
<ItemGroupData ItemGroupOID="IG.ADAE" data:ItemGroupDataSeq="15">
<ItemData ItemOID="IT.ADAE.STUDYID" Value="SASCSTDEMODATA"/>
<ItemData ItemOID="IT.ADAE.USUBJID" Value="S001P011"/>
<ItemData ItemOID="IT.ADAE.AESEQ" Value="14"/>
<ItemData ItemOID="IT.ADAE.AETERM" Value="RASH SCALY"/>
<ItemData ItemOID="IT.ADAE.AEDECOD" Value="Exfoliative rash"/>
<ItemData ItemOID="IT.ADAE.AEBODSYS" Value="SKIN AND SUBCUTANEOUS TISSUE DISORDERS"/>
<ItemData ItemOID="IT.ADAE.AEBDSYCD" Value="10040785"/>
<ItemData ItemOID="IT.ADAE.AELLT" Value="Rash scaly"/>
<ItemData ItemOID="IT.ADAE.AELLTCD" Value="10037889"/>
<ItemData ItemOID="IT.ADAE.AEPTCD" Value="10064579"/>
<ItemData ItemOID="IT.ADAE.AEHLT" Value="Exfoliative conditions"/>
<ItemData ItemOID="IT.ADAE.AEHLTCD" Value="10015664"/>
<ItemData ItemOID="IT.ADAE.AEHLGT" Value="Epidermal and dermal conditions"/>
<ItemData ItemOID="IT.ADAE.AEHLGTCD" Value="10014982"/>
<ItemData ItemOID="IT.ADAE.AESOC" Value="Skin and subcutaneous tissue disorders"/>
<ItemData ItemOID="IT.ADAE.AESOCCD" Value="10040785"/>
<ItemData ItemOID="IT.ADAE.AESTDTC" Value="2008-03-27T11:30"/>
<ItemData ItemOID="IT.ADAE.ASTDTM" Value="1522236600"/>
<ItemData ItemOID="IT.ADAE.AEENDTC" Value="2008-03-31T16:00"/>
<ItemData ItemOID="IT.ADAE.AENDTM" Value="1522598400"/>
<ItemData ItemOID="IT.ADAE.ASTDY" Value="22"/>
<ItemData ItemOID="IT.ADAE.AENDY" Value="26"/>
<ItemData ItemOID="IT.ADAE.ADURN" Value="4"/>
<ItemData ItemOID="IT.ADAE.ADURU" Value="DAYS"/>
<ItemData ItemOID="IT.ADAE.AEDUR" Value="P4DT4H30M"/>
<ItemData ItemOID="IT.ADAE.DOSEAEON" Value="120"/>
<ItemData ItemOID="IT.ADAE.DOSAEONU" Value="MG"/>
<ItemData ItemOID="IT.ADAE.DOSECUM" Value="120"/>
<ItemData ItemOID="IT.ADAE.DOSECUMU" Value="MG"/>
<ItemData ItemOID="IT.ADAE.AESER" Value="N"/>
<ItemData ItemOID="IT.ADAE.AESEV" Value="MODERATE"/>
<ItemData ItemOID="IT.ADAE.AESEVN" Value="2"/>
<ItemData ItemOID="IT.ADAE.ASEV" Value="Moderate"/>
<ItemData ItemOID="IT.ADAE.ASEVN" Value="2"/>
<ItemData ItemOID="IT.ADAE.SEVGR1" Value="Non-severe"/>
<ItemData ItemOID="IT.ADAE.SEVGR1N" Value="1"/>
<ItemData ItemOID="IT.ADAE.AEREL" Value="RELATED"/>
<ItemData ItemOID="IT.ADAE.AERELN" Value="3"/>
<ItemData ItemOID="IT.ADAE.AREL" Value="Related"/>
<ItemData ItemOID="IT.ADAE.ARELN" Value="3"/>
<ItemData ItemOID="IT.ADAE.AETOXGR" Value="2"/>
<ItemData ItemOID="IT.ADAE.AETOXGRN" Value="2"/>
<ItemData ItemOID="IT.ADAE.AEACN" Value="WITHDRAWN"/>
<ItemData ItemOID="IT.ADAE.SMQ01NAM" Value="Gastrointestinal nonspecific symptoms and therapeutic procedures (SMQ)"/>
<ItemData ItemOID="IT.ADAE.SMQ01CD" Value="20000140"/>
<ItemData ItemOID="IT.ADAE.SMQ01SC" Value="NARROW"/>
<ItemData ItemOID="IT.ADAE.SMQ01SCN" Value="2"/>
<ItemData ItemOID="IT.ADAE.CQ01NAM" Value="Pruritic or NOS rashes (CQ)"/>
<ItemData ItemOID="IT.ADAE.AGE" Value="53"/>
<ItemData ItemOID="IT.ADAE.SEX" Value="M"/>
<ItemData ItemOID="IT.ADAE.TRTP" Value="TRT C"/>
<ItemData ItemOID="IT.ADAE.TRTEDT" Value="17625"/>
<ItemData ItemOID="IT.ADAE.TRTSDT" Value="17598"/>
<ItemData ItemOID="IT.ADAE.SAFFL" Value="Y"/>
<ItemData ItemOID="IT.ADAE.TRTPN" Value="3"/>
</ItemGroupData>
<ItemGroupData ItemGroupOID="IG.ADAE" data:ItemGroupDataSeq="16">
<ItemData ItemOID="IT.ADAE.STUDYID" Value="SASCSTDEMODATA"/>
<ItemData ItemOID="IT.ADAE.USUBJID" Value="S001P012"/>
<ItemData ItemOID="IT.ADAE.AESEQ" Value="16"/>
<ItemData ItemOID="IT.ADAE.AETERM" Value="HEADACHE"/>
<ItemData ItemOID="IT.ADAE.AEDECOD" Value="Headache"/>
<ItemData ItemOID="IT.ADAE.AEBODSYS" Value="NERVOUS SYSTEM DISORDERS"/>
<ItemData ItemOID="IT.ADAE.AEBDSYCD" Value="10029205"/>
<ItemData ItemOID="IT.ADAE.AELLT" Value="Headache"/>
<ItemData ItemOID="IT.ADAE.AELLTCD" Value="10019211"/>
<ItemData ItemOID="IT.ADAE.AEPTCD" Value="10019211"/>
<ItemData ItemOID="IT.ADAE.AEHLT" Value="Headaches NEC"/>
<ItemData ItemOID="IT.ADAE.AEHLTCD" Value="10019233"/>
<ItemData ItemOID="IT.ADAE.AEHLGT" Value="Headaches"/>
<ItemData ItemOID="IT.ADAE.AEHLGTCD" Value="10019231"/>
<ItemData ItemOID="IT.ADAE.AESOC" Value="Nervous system disorders"/>
<ItemData ItemOID="IT.ADAE.AESOCCD" Value="10029205"/>
<ItemData ItemOID="IT.ADAE.AESTDTC" Value="2008-03-14T17:00"/>
<ItemData ItemOID="IT.ADAE.ASTDTM" Value="1521133200"/>
<ItemData ItemOID="IT.ADAE.AEENDTC" Value="2008-03-27"/>
<ItemData ItemOID="IT.ADAE.AENDTM" Value="1522238400"/>
<ItemData ItemOID="IT.ADAE.AENTMF" Value="H"/>
<ItemData ItemOID="IT.ADAE.ASTDY" Value="2"/>
<ItemData ItemOID="IT.ADAE.AENDY" Value="15"/>
<ItemData ItemOID="IT.ADAE.ADURN" Value="13"/>
<ItemData ItemOID="IT.ADAE.ADURU" Value="DAYS"/>
<ItemData ItemOID="IT.ADAE.AEDUR" Value="P13D"/>
<ItemData ItemOID="IT.ADAE.AOCCFL" Value="Y"/>
<ItemData ItemOID="IT.ADAE.AOCCIFL" Value="Y"/>
<ItemData ItemOID="IT.ADAE.DOSEAEON" Value="80"/>
<ItemData ItemOID="IT.ADAE.DOSAEONU" Value="MG"/>
<ItemData ItemOID="IT.ADAE.DOSECUM" Value="80"/>
<ItemData ItemOID="IT.ADAE.DOSECUMU" Value="MG"/>
<ItemData ItemOID="IT.ADAE.AESER" Value="N"/>
<ItemData ItemOID="IT.ADAE.AESEV" Value="MODERATE"/>
<ItemData ItemOID="IT.ADAE.AESEVN" Value="2"/>
<ItemData ItemOID="IT.ADAE.ASEV" Value="Moderate"/>
<ItemData ItemOID="IT.ADAE.ASEVN" Value="2"/>
<ItemData ItemOID="IT.ADAE.SEVGR1" Value="Non-severe"/>
<ItemData ItemOID="IT.ADAE.SEVGR1N" Value="1"/>
<ItemData ItemOID="IT.ADAE.AEREL" Value="NOT RELATED"/>
<ItemData ItemOID="IT.ADAE.AERELN" Value="1"/>
<ItemData ItemOID="IT.ADAE.AREL" Value="Not Related"/>
<ItemData ItemOID="IT.ADAE.ARELN" Value="1"/>
<ItemData ItemOID="IT.ADAE.AETOXGR" Value="2"/>
<ItemData ItemOID="IT.ADAE.AETOXGRN" Value="2"/>
<ItemData ItemOID="IT.ADAE.AEACN" Value="NOT APPLICABLE"/>
<ItemData ItemOID="IT.ADAE.AGE" Value="47"/>
<ItemData ItemOID="IT.ADAE.SEX" Value="F"/>
<ItemData ItemOID="IT.ADAE.TRTP" Value="TRT B"/>
<ItemData ItemOID="IT.ADAE.TRTEDT" Value="17645"/>
<ItemData ItemOID="IT.ADAE.TRTSDT" Value="17603"/>
<ItemData ItemOID="IT.ADAE.SAFFL" Value="Y"/>
<ItemData ItemOID="IT.ADAE.TRTPN" Value="2"/>
</ItemGroupData>
<ItemGroupData ItemGroupOID="IG.ADAE" data:ItemGroupDataSeq="17">
<ItemData ItemOID="IT.ADAE.STUDYID" Value="SASCSTDEMODATA"/>
<ItemData ItemOID="IT.ADAE.USUBJID" Value="S001P014"/>
<ItemData ItemOID="IT.ADAE.AESEQ" Value="17"/>
<ItemData ItemOID="IT.ADAE.AETERM" Value="ABDOMINAL PAIN"/>
<ItemData ItemOID="IT.ADAE.AEDECOD" Value="Abdominal pain"/>
<ItemData ItemOID="IT.ADAE.AEBODSYS" Value="GASTROINTESTINAL DISORDERS"/>
<ItemData ItemOID="IT.ADAE.AEBDSYCD" Value="10017947"/>
<ItemData ItemOID="IT.ADAE.AELLT" Value="Abdominal pain"/>
<ItemData ItemOID="IT.ADAE.AELLTCD" Value="10000081"/>
<ItemData ItemOID="IT.ADAE.AEPTCD" Value="10000081"/>
<ItemData ItemOID="IT.ADAE.AEHLT" Value="Gastrointestinal and abdominal pains (excl oral and throat)"/>
<ItemData ItemOID="IT.ADAE.AEHLTCD" Value="10017926"/>
<ItemData ItemOID="IT.ADAE.AEHLGT" Value="Gastrointestinal signs and symptoms"/>
<ItemData ItemOID="IT.ADAE.AEHLGTCD" Value="10018012"/>
<ItemData ItemOID="IT.ADAE.AESOC" Value="Gastrointestinal disorders"/>
<ItemData ItemOID="IT.ADAE.AESOCCD" Value="10017947"/>
<ItemData ItemOID="IT.ADAE.AESTDTC" Value="2008-04-15"/>
<ItemData ItemOID="IT.ADAE.ASTDTM" Value="1523880000"/>
<ItemData ItemOID="IT.ADAE.ASTTMF" Value="H"/>
<ItemData ItemOID="IT.ADAE.AEENDTC" Value="2008-04-20T10:00"/>
<ItemData ItemOID="IT.ADAE.AENDTM" Value="1524304800"/>
<ItemData ItemOID="IT.ADAE.ASTDY" Value="33"/>
<ItemData ItemOID="IT.ADAE.AENDY" Value="38"/>
<ItemData ItemOID="IT.ADAE.ADURN" Value="5"/>
<ItemData ItemOID="IT.ADAE.ADURU" Value="DAYS"/>
<ItemData ItemOID="IT.ADAE.AEDUR" Value="P5D"/>
<ItemData ItemOID="IT.ADAE.TRTEMFL" Value="Y"/>
<ItemData ItemOID="IT.ADAE.DOSEAEON" Value="80"/>
<ItemData ItemOID="IT.ADAE.DOSAEONU" Value="MG"/>
<ItemData ItemOID="IT.ADAE.DOSECUM" Value="80"/>
<ItemData ItemOID="IT.ADAE.DOSECUMU" Value="MG"/>
<ItemData ItemOID="IT.ADAE.AESER" Value="N"/>
<ItemData ItemOID="IT.ADAE.ASEV" Value="Other"/>
<ItemData ItemOID="IT.ADAE.AEREL" Value="NOT RELATED"/>
<ItemData ItemOID="IT.ADAE.AERELN" Value="1"/>
<ItemData ItemOID="IT.ADAE.AREL" Value="Not Related"/>
<ItemData ItemOID="IT.ADAE.ARELN" Value="1"/>
<ItemData ItemOID="IT.ADAE.AEACN" Value="NOT APPLICABLE"/>
<ItemData ItemOID="IT.ADAE.AGE" Value="32"/>
<ItemData ItemOID="IT.ADAE.SEX" Value="M"/>
<ItemData ItemOID="IT.ADAE.TRTP" Value="TRT B"/>
<ItemData ItemOID="IT.ADAE.TRTEDT" Value="17647"/>
<ItemData ItemOID="IT.ADAE.TRTSDT" Value="17605"/>
<ItemData ItemOID="IT.ADAE.SAFFL" Value="Y"/>
<ItemData ItemOID="IT.ADAE.TRTPN" Value="2"/>
</ItemGroupData>
<ItemGroupData ItemGroupOID="IG.ADAE" data:ItemGroupDataSeq="18">
<ItemData ItemOID="IT.ADAE.STUDYID" Value="SASCSTDEMODATA"/>
<ItemData ItemOID="IT.ADAE.USUBJID" Value="S001P014"/>
<ItemData ItemOID="IT.ADAE.AESEQ" Value="18"/>
<ItemData ItemOID="IT.ADAE.AETERM" Value="DIARRHEA NOS"/>
<ItemData ItemOID="IT.ADAE.AEDECOD" Value="Diarrhoea"/>
<ItemData ItemOID="IT.ADAE.AEBODSYS" Value="GASTROINTESTINAL DISORDERS"/>
<ItemData ItemOID="IT.ADAE.AEBDSYCD" Value="10017947"/>
<ItemData ItemOID="IT.ADAE.AELLT" Value="Diarrhea NOS"/>
<ItemData ItemOID="IT.ADAE.AELLTCD" Value="10012732"/>
<ItemData ItemOID="IT.ADAE.AEPTCD" Value="10012735"/>
<ItemData ItemOID="IT.ADAE.AEHLT" Value="Diarrhoea (excl infective)"/>
<ItemData ItemOID="IT.ADAE.AEHLTCD" Value="10012736"/>
<ItemData ItemOID="IT.ADAE.AEHLGT" Value="Gastrointestinal motility and defaecation conditions"/>
<ItemData ItemOID="IT.ADAE.AEHLGTCD" Value="10017977"/>
<ItemData ItemOID="IT.ADAE.AESOC" Value="Gastrointestinal disorders"/>
<ItemData ItemOID="IT.ADAE.AESOCCD" Value="10017947"/>
<ItemData ItemOID="IT.ADAE.AESTDTC" Value="2008-04-01T13:30"/>
<ItemData ItemOID="IT.ADAE.ASTDTM" Value="1522675800"/>
<ItemData ItemOID="IT.ADAE.AEENDTC" Value="2008-04-04"/>
<ItemData ItemOID="IT.ADAE.AENDTM" Value="1522929600"/>
<ItemData ItemOID="IT.ADAE.AENTMF" Value="H"/>
<ItemData ItemOID="IT.ADAE.ASTDY" Value="19"/>
<ItemData ItemOID="IT.ADAE.AENDY" Value="22"/>
<ItemData ItemOID="IT.ADAE.ADURN" Value="3"/>
<ItemData ItemOID="IT.ADAE.ADURU" Value="DAYS"/>
<ItemData ItemOID="IT.ADAE.AEDUR" Value="P3D"/>
<ItemData ItemOID="IT.ADAE.TRTEMFL" Value="Y"/>
<ItemData ItemOID="IT.ADAE.AOCCFL" Value="Y"/>
<ItemData ItemOID="IT.ADAE.AOCCIFL" Value="Y"/>
<ItemData ItemOID="IT.ADAE.DOSEAEON" Value="80"/>
<ItemData ItemOID="IT.ADAE.DOSAEONU" Value="MG"/>
<ItemData ItemOID="IT.ADAE.DOSECUM" Value="80"/>
<ItemData ItemOID="IT.ADAE.DOSECUMU" Value="MG"/>
<ItemData ItemOID="IT.ADAE.AESER" Value="N"/>
<ItemData ItemOID="IT.ADAE.AESEV" Value="MILD"/>
<ItemData ItemOID="IT.ADAE.AESEVN" Value="1"/>
<ItemData ItemOID="IT.ADAE.ASEV" Value="Mild"/>
<ItemData ItemOID="IT.ADAE.ASEVN" Value="1"/>
<ItemData ItemOID="IT.ADAE.SEVGR1" Value="Non-severe"/>
<ItemData ItemOID="IT.ADAE.SEVGR1N" Value="1"/>
<ItemData ItemOID="IT.ADAE.AEREL" Value="NOT RELATED"/>
<ItemData ItemOID="IT.ADAE.AERELN" Value="1"/>
<ItemData ItemOID="IT.ADAE.AREL" Value="Not Related"/>
<ItemData ItemOID="IT.ADAE.ARELN" Value="1"/>
<ItemData ItemOID="IT.ADAE.AETOXGR" Value="1"/>
<ItemData ItemOID="IT.ADAE.AETOXGRN" Value="1"/>
<ItemData ItemOID="IT.ADAE.AEACN" Value="NOT APPLICABLE"/>
<ItemData ItemOID="IT.ADAE.SMQ01NAM" Value="Gastrointestinal nonspecific symptoms and therapeutic procedures (SMQ)"/>
<ItemData ItemOID="IT.ADAE.SMQ01CD" Value="20000140"/>
<ItemData ItemOID="IT.ADAE.SMQ01SC" Value="NARROW"/>
<ItemData ItemOID="IT.ADAE.SMQ01SCN" Value="2"/>
<ItemData ItemOID="IT.ADAE.AGE" Value="32"/>
<ItemData ItemOID="IT.ADAE.SEX" Value="M"/>
<ItemData ItemOID="IT.ADAE.TRTP" Value="TRT B"/>
<ItemData ItemOID="IT.ADAE.TRTEDT" Value="17647"/>
<ItemData ItemOID="IT.ADAE.TRTSDT" Value="17605"/>
<ItemData ItemOID="IT.ADAE.SAFFL" Value="Y"/>
<ItemData ItemOID="IT.ADAE.TRTPN" Value="2"/>
</ItemGroupData>
<ItemGroupData ItemGroupOID="IG.ADAE" data:ItemGroupDataSeq="19">
<ItemData ItemOID="IT.ADAE.STUDYID" Value="SASCSTDEMODATA"/>
<ItemData ItemOID="IT.ADAE.USUBJID" Value="S001P015"/>
<ItemData ItemOID="IT.ADAE.AESEQ" Value="19"/>
<ItemData ItemOID="IT.ADAE.AETERM" Value="PRURITIC RASH"/>
<ItemData ItemOID="IT.ADAE.AEDECOD" Value="Rash pruritic"/>
<ItemData ItemOID="IT.ADAE.AEBODSYS" Value="SKIN AND SUBCUTANEOUS TISSUE DISORDERS"/>
<ItemData ItemOID="IT.ADAE.AEBDSYCD" Value="10040785"/>
<ItemData ItemOID="IT.ADAE.AELLT" Value="Pruritic rash"/>
<ItemData ItemOID="IT.ADAE.AELLTCD" Value="10037085"/>
<ItemData ItemOID="IT.ADAE.AEPTCD" Value="10037884"/>
<ItemData ItemOID="IT.ADAE.AEHLT" Value="Pruritus NEC"/>
<ItemData ItemOID="IT.ADAE.AEHLTCD" Value="10049293"/>
<ItemData ItemOID="IT.ADAE.AEHLGT" Value="Epidermal and dermal conditions"/>
<ItemData ItemOID="IT.ADAE.AEHLGTCD" Value="10014982"/>
<ItemData ItemOID="IT.ADAE.AESOC" Value="Skin and subcutaneous tissue disorders"/>
<ItemData ItemOID="IT.ADAE.AESOCCD" Value="10040785"/>
<ItemData ItemOID="IT.ADAE.AESTDTC" Value="2008-03-30T22:00"/>
<ItemData ItemOID="IT.ADAE.ASTDTM" Value="1522533600"/>
<ItemData ItemOID="IT.ADAE.AEENDTC" Value="2008-03-31T05:30"/>
<ItemData ItemOID="IT.ADAE.AENDTM" Value="1522560600"/>
<ItemData ItemOID="IT.ADAE.ASTDY" Value="12"/>
<ItemData ItemOID="IT.ADAE.AENDY" Value="13"/>
<ItemData ItemOID="IT.ADAE.ADURN" Value="1"/>
<ItemData ItemOID="IT.ADAE.ADURU" Value="DAYS"/>
<ItemData ItemOID="IT.ADAE.AEDUR" Value="P0DT7H30M"/>
<ItemData ItemOID="IT.ADAE.AOCCFL" Value="Y"/>
<ItemData ItemOID="IT.ADAE.AOCCIFL" Value="Y"/>
<ItemData ItemOID="IT.ADAE.AESER" Value="Y"/>
<ItemData ItemOID="IT.ADAE.AESEV" Value="SEVERE"/>
<ItemData ItemOID="IT.ADAE.AESEVN" Value="3"/>
<ItemData ItemOID="IT.ADAE.ASEV" Value="Severe"/>
<ItemData ItemOID="IT.ADAE.ASEVN" Value="3"/>
<ItemData ItemOID="IT.ADAE.SEVGR1" Value="Severe"/>
<ItemData ItemOID="IT.ADAE.SEVGR1N" Value="2"/>
<ItemData ItemOID="IT.ADAE.AEREL" Value="RELATED"/>
<ItemData ItemOID="IT.ADAE.AERELN" Value="3"/>
<ItemData ItemOID="IT.ADAE.AREL" Value="Related"/>
<ItemData ItemOID="IT.ADAE.ARELN" Value="3"/>
<ItemData ItemOID="IT.ADAE.AETOXGR" Value="3"/>
<ItemData ItemOID="IT.ADAE.AETOXGRN" Value="3"/>
<ItemData ItemOID="IT.ADAE.AEACN" Value="WITHDRAWN"/>
<ItemData ItemOID="IT.ADAE.AGE" Value="31"/>
<ItemData ItemOID="IT.ADAE.SEX" Value="M"/>
<ItemData ItemOID="IT.ADAE.TRTP" Value="TRT C"/>
<ItemData ItemOID="IT.ADAE.SAFFL" Value="N"/>
<ItemData ItemOID="IT.ADAE.TRTPN" Value="3"/>
</ItemGroupData>
<ItemGroupData ItemGroupOID="IG.ADAE" data:ItemGroupDataSeq="20">
<ItemData ItemOID="IT.ADAE.STUDYID" Value="SASCSTDEMODATA"/>
<ItemData ItemOID="IT.ADAE.USUBJID" Value="S002P002"/>
<ItemData ItemOID="IT.ADAE.AESEQ" Value="20"/>
<ItemData ItemOID="IT.ADAE.AETERM" Value="HEADACHE DISCOMFORT"/>
<ItemData ItemOID="IT.ADAE.AEDECOD" Value="Headache"/>
<ItemData ItemOID="IT.ADAE.AEBODSYS" Value="NERVOUS SYSTEM DISORDERS"/>
<ItemData ItemOID="IT.ADAE.AEBDSYCD" Value="10029205"/>
<ItemData ItemOID="IT.ADAE.AELLT" Value="Headache discomfort"/>
<ItemData ItemOID="IT.ADAE.AELLTCD" Value="10019213"/>
<ItemData ItemOID="IT.ADAE.AEPTCD" Value="10019211"/>
<ItemData ItemOID="IT.ADAE.AEHLT" Value="Headaches NEC"/>
<ItemData ItemOID="IT.ADAE.AEHLTCD" Value="10019233"/>
<ItemData ItemOID="IT.ADAE.AEHLGT" Value="Headaches"/>
<ItemData ItemOID="IT.ADAE.AEHLGTCD" Value="10019231"/>
<ItemData ItemOID="IT.ADAE.AESOC" Value="Nervous system disorders"/>
<ItemData ItemOID="IT.ADAE.AESOCCD" Value="10029205"/>
<ItemData ItemOID="IT.ADAE.AESTDTC" Value="2008-04-06T16:30"/>
<ItemData ItemOID="IT.ADAE.ASTDTM" Value="1523118600"/>
<ItemData ItemOID="IT.ADAE.AEENDTC" Value="2008-04-17T06:30"/>
<ItemData ItemOID="IT.ADAE.AENDTM" Value="1524033000"/>
<ItemData ItemOID="IT.ADAE.ASTDY" Value="0"/>
<ItemData ItemOID="IT.ADAE.AENDY" Value="42"/>
<ItemData ItemOID="IT.ADAE.ADURN" Value="42"/>
<ItemData ItemOID="IT.ADAE.ADURU" Value="DAYS"/>
<ItemData ItemOID="IT.ADAE.AEDUR" Value="P10DT14H"/>
<ItemData ItemOID="IT.ADAE.AOCCFL" Value="Y"/>
<ItemData ItemOID="IT.ADAE.AOCCIFL" Value="Y"/>
<ItemData ItemOID="IT.ADAE.DOSEAEON" Value="40"/>
<ItemData ItemOID="IT.ADAE.DOSAEONU" Value="MG"/>
<ItemData ItemOID="IT.ADAE.DOSECUM" Value="40"/>
<ItemData ItemOID="IT.ADAE.DOSECUMU" Value="MG"/>
<ItemData ItemOID="IT.ADAE.AESER" Value="Y"/>
<ItemData ItemOID="IT.ADAE.AESEV" Value="SEVERE"/>
<ItemData ItemOID="IT.ADAE.AESEVN" Value="3"/>
<ItemData ItemOID="IT.ADAE.ASEV" Value="Severe"/>
<ItemData ItemOID="IT.ADAE.ASEVN" Value="3"/>
<ItemData ItemOID="IT.ADAE.SEVGR1" Value="Severe"/>
<ItemData ItemOID="IT.ADAE.SEVGR1N" Value="2"/>
<ItemData ItemOID="IT.ADAE.AEREL" Value="NOT RELATED"/>
<ItemData ItemOID="IT.ADAE.AERELN" Value="1"/>
<ItemData ItemOID="IT.ADAE.AREL" Value="Not Related"/>
<ItemData ItemOID="IT.ADAE.ARELN" Value="1"/>
<ItemData ItemOID="IT.ADAE.AETOXGR" Value="3"/>
<ItemData ItemOID="IT.ADAE.AETOXGRN" Value="3"/>
<ItemData ItemOID="IT.ADAE.AEACN" Value="NOT APPLICABLE"/>
<ItemData ItemOID="IT.ADAE.AGE" Value="47"/>
<ItemData ItemOID="IT.ADAE.SEX" Value="F"/>
<ItemData ItemOID="IT.ADAE.TRTP" Value="TRT A"/>
<ItemData ItemOID="IT.ADAE.TRTEDT" Value="17640"/>
<ItemData ItemOID="IT.ADAE.TRTSDT" Value="17598"/>
<ItemData ItemOID="IT.ADAE.SAFFL" Value="Y"/>
<ItemData ItemOID="IT.ADAE.TRTPN" Value="1"/>
</ItemGroupData>
<ItemGroupData ItemGroupOID="IG.ADAE" data:ItemGroupDataSeq="21">
<ItemData ItemOID="IT.ADAE.STUDYID" Value="SASCSTDEMODATA"/>
<ItemData ItemOID="IT.ADAE.USUBJID" Value="S002P003"/>
<ItemData ItemOID="IT.ADAE.AESEQ" Value="21"/>
<ItemData ItemOID="IT.ADAE.AETERM" Value="ACID DYSPEPSIA"/>
<ItemData ItemOID="IT.ADAE.AEDECOD" Value="Dyspepsia"/>
<ItemData ItemOID="IT.ADAE.AEBODSYS" Value="GASTROINTESTINAL DISORDERS"/>
<ItemData ItemOID="IT.ADAE.AEBDSYCD" Value="10017947"/>
<ItemData ItemOID="IT.ADAE.AELLT" Value="Acid dyspepsia"/>
<ItemData ItemOID="IT.ADAE.AELLTCD" Value="10000460"/>
<ItemData ItemOID="IT.ADAE.AEPTCD" Value="10013946"/>
<ItemData ItemOID="IT.ADAE.AEHLT" Value="Dyspeptic signs and symptoms"/>
<ItemData ItemOID="IT.ADAE.AEHLTCD" Value="10013949"/>
<ItemData ItemOID="IT.ADAE.AEHLGT" Value="Gastrointestinal signs and symptoms"/>
<ItemData ItemOID="IT.ADAE.AEHLGTCD" Value="10018012"/>
<ItemData ItemOID="IT.ADAE.AESOC" Value="Gastrointestinal disorders"/>
<ItemData ItemOID="IT.ADAE.AESOCCD" Value="10017947"/>
<ItemData ItemOID="IT.ADAE.AESTDTC" Value="2008-03-11T21:30"/>
<ItemData ItemOID="IT.ADAE.ASTDTM" Value="1520890200"/>
<ItemData ItemOID="IT.ADAE.AEENDTC" Value="2008-03-15T20:00"/>
<ItemData ItemOID="IT.ADAE.AENDTM" Value="1521230400"/>
<ItemData ItemOID="IT.ADAE.ASTDY" Value="5"/>
<ItemData ItemOID="IT.ADAE.AENDY" Value="9"/>
<ItemData ItemOID="IT.ADAE.ADURN" Value="4"/>
<ItemData ItemOID="IT.ADAE.ADURU" Value="DAYS"/>
<ItemData ItemOID="IT.ADAE.AEDUR" Value="P3DT22H30M"/>
<ItemData ItemOID="IT.ADAE.TRTEMFL" Value="Y"/>
<ItemData ItemOID="IT.ADAE.AOCCFL" Value="Y"/>
<ItemData ItemOID="IT.ADAE.DOSEAEON" Value="40"/>
<ItemData ItemOID="IT.ADAE.DOSAEONU" Value="MG"/>
<ItemData ItemOID="IT.ADAE.DOSECUM" Value="120"/>
<ItemData ItemOID="IT.ADAE.DOSECUMU" Value="MG"/>
<ItemData ItemOID="IT.ADAE.AESER" Value="N"/>
<ItemData ItemOID="IT.ADAE.ASEV" Value="Other"/>
<ItemData ItemOID="IT.ADAE.AEREL" Value="NOT RELATED"/>
<ItemData ItemOID="IT.ADAE.AERELN" Value="1"/>
<ItemData ItemOID="IT.ADAE.AREL" Value="Not Related"/>
<ItemData ItemOID="IT.ADAE.ARELN" Value="1"/>
<ItemData ItemOID="IT.ADAE.AEACN" Value="NOT APPLICABLE"/>
<ItemData ItemOID="IT.ADAE.AGE" Value="43"/>
<ItemData ItemOID="IT.ADAE.SEX" Value="M"/>
<ItemData ItemOID="IT.ADAE.TRTP" Value="TRT B"/>
<ItemData ItemOID="IT.ADAE.TRTEDT" Value="17626"/>
<ItemData ItemOID="IT.ADAE.TRTSDT" Value="17598"/>
<ItemData ItemOID="IT.ADAE.SAFFL" Value="Y"/>
<ItemData ItemOID="IT.ADAE.TRTPN" Value="2"/>
</ItemGroupData>
<ItemGroupData ItemGroupOID="IG.ADAE" data:ItemGroupDataSeq="22">
<ItemData ItemOID="IT.ADAE.STUDYID" Value="SASCSTDEMODATA"/>
<ItemData ItemOID="IT.ADAE.USUBJID" Value="S002P003"/>
<ItemData ItemOID="IT.ADAE.AESEQ" Value="22"/>
<ItemData ItemOID="IT.ADAE.AETERM" Value="HEADACHE"/>
<ItemData ItemOID="IT.ADAE.AEDECOD" Value="Headache"/>
<ItemData ItemOID="IT.ADAE.AEBODSYS" Value="NERVOUS SYSTEM DISORDERS"/>
<ItemData ItemOID="IT.ADAE.AEBDSYCD" Value="10029205"/>
<ItemData ItemOID="IT.ADAE.AELLT" Value="Headache"/>
<ItemData ItemOID="IT.ADAE.AELLTCD" Value="10019211"/>
<ItemData ItemOID="IT.ADAE.AEPTCD" Value="10019211"/>
<ItemData ItemOID="IT.ADAE.AEHLT" Value="Headaches NEC"/>
<ItemData ItemOID="IT.ADAE.AEHLTCD" Value="10019233"/>
<ItemData ItemOID="IT.ADAE.AEHLGT" Value="Headaches"/>
<ItemData ItemOID="IT.ADAE.AEHLGTCD" Value="10019231"/>
<ItemData ItemOID="IT.ADAE.AESOC" Value="Nervous system disorders"/>
<ItemData ItemOID="IT.ADAE.AESOCCD" Value="10029205"/>
<ItemData ItemOID="IT.ADAE.AESTDTC" Value="2008-03-13T18:00"/>
<ItemData ItemOID="IT.ADAE.ASTDTM" Value="1521050400"/>
<ItemData ItemOID="IT.ADAE.AEENDTC" Value="2008-03-17T18:30"/>
<ItemData ItemOID="IT.ADAE.AENDTM" Value="1521397800"/>
<ItemData ItemOID="IT.ADAE.ASTDY" Value="7"/>
<ItemData ItemOID="IT.ADAE.AENDY" Value="11"/>
<ItemData ItemOID="IT.ADAE.ADURN" Value="4"/>
<ItemData ItemOID="IT.ADAE.ADURU" Value="DAYS"/>
<ItemData ItemOID="IT.ADAE.AEDUR" Value="P4DT0H30M"/>
<ItemData ItemOID="IT.ADAE.TRTEMFL" Value="Y"/>
<ItemData ItemOID="IT.ADAE.AOCCIFL" Value="Y"/>
<ItemData ItemOID="IT.ADAE.DOSEAEON" Value="40"/>
<ItemData ItemOID="IT.ADAE.DOSAEONU" Value="MG"/>
<ItemData ItemOID="IT.ADAE.DOSECUM" Value="120"/>
<ItemData ItemOID="IT.ADAE.DOSECUMU" Value="MG"/>
<ItemData ItemOID="IT.ADAE.AESER" Value="N"/>
<ItemData ItemOID="IT.ADAE.AESEV" Value="SEVERE"/>
<ItemData ItemOID="IT.ADAE.AESEVN" Value="3"/>
<ItemData ItemOID="IT.ADAE.ASEV" Value="Severe"/>
<ItemData ItemOID="IT.ADAE.ASEVN" Value="3"/>
<ItemData ItemOID="IT.ADAE.SEVGR1" Value="Severe"/>
<ItemData ItemOID="IT.ADAE.SEVGR1N" Value="2"/>
<ItemData ItemOID="IT.ADAE.AREL" Value="Other"/>
<ItemData ItemOID="IT.ADAE.AETOXGR" Value="3"/>
<ItemData ItemOID="IT.ADAE.AETOXGRN" Value="3"/>
<ItemData ItemOID="IT.ADAE.AEACN" Value="NOT APPLICABLE"/>
<ItemData ItemOID="IT.ADAE.AGE" Value="43"/>
<ItemData ItemOID="IT.ADAE.SEX" Value="M"/>
<ItemData ItemOID="IT.ADAE.TRTP" Value="TRT B"/>
<ItemData ItemOID="IT.ADAE.TRTEDT" Value="17626"/>
<ItemData ItemOID="IT.ADAE.TRTSDT" Value="17598"/>
<ItemData ItemOID="IT.ADAE.SAFFL" Value="Y"/>
<ItemData ItemOID="IT.ADAE.TRTPN" Value="2"/>
</ItemGroupData>
<ItemGroupData ItemGroupOID="IG.ADAE" data:ItemGroupDataSeq="23">
<ItemData ItemOID="IT.ADAE.STUDYID" Value="SASCSTDEMODATA"/>
<ItemData ItemOID="IT.ADAE.USUBJID" Value="S002P003"/>
<ItemData ItemOID="IT.ADAE.AESEQ" Value="23"/>
<ItemData ItemOID="IT.ADAE.AETERM" Value="HEADACHE NOS"/>
<ItemData ItemOID="IT.ADAE.AEDECOD" Value="Headache"/>
<ItemData ItemOID="IT.ADAE.AEBODSYS" Value="NERVOUS SYSTEM DISORDERS"/>
<ItemData ItemOID="IT.ADAE.AEBDSYCD" Value="10029205"/>
<ItemData ItemOID="IT.ADAE.AELLT" Value="Headache NOS"/>
<ItemData ItemOID="IT.ADAE.AELLTCD" Value="10019218"/>
<ItemData ItemOID="IT.ADAE.AEPTCD" Value="10019211"/>
<ItemData ItemOID="IT.ADAE.AEHLT" Value="Headaches NEC"/>
<ItemData ItemOID="IT.ADAE.AEHLTCD" Value="10019233"/>
<ItemData ItemOID="IT.ADAE.AEHLGT" Value="Headaches"/>
<ItemData ItemOID="IT.ADAE.AEHLGTCD" Value="10019231"/>
<ItemData ItemOID="IT.ADAE.AESOC" Value="Nervous system disorders"/>
<ItemData ItemOID="IT.ADAE.AESOCCD" Value="10029205"/>
<ItemData ItemOID="IT.ADAE.AESTDTC" Value="2008-03-31T05:30"/>
<ItemData ItemOID="IT.ADAE.ASTDTM" Value="1522560600"/>
<ItemData ItemOID="IT.ADAE.AEENDTC" Value="2008-04-03T05:30"/>
<ItemData ItemOID="IT.ADAE.AENDTM" Value="1522819800"/>
<ItemData ItemOID="IT.ADAE.ASTDY" Value="25"/>
<ItemData ItemOID="IT.ADAE.AENDY" Value="28"/>
<ItemData ItemOID="IT.ADAE.ADURN" Value="3"/>
<ItemData ItemOID="IT.ADAE.ADURU" Value="DAYS"/>
<ItemData ItemOID="IT.ADAE.AEDUR" Value="P3DT0H"/>
<ItemData ItemOID="IT.ADAE.TRTEMFL" Value="Y"/>
<ItemData ItemOID="IT.ADAE.DOSEAEON" Value="40"/>
<ItemData ItemOID="IT.ADAE.DOSAEONU" Value="MG"/>
<ItemData ItemOID="IT.ADAE.DOSECUM" Value="120"/>
<ItemData ItemOID="IT.ADAE.DOSECUMU" Value="MG"/>
<ItemData ItemOID="IT.ADAE.AESER" Value="N"/>
<ItemData ItemOID="IT.ADAE.AESEV" Value="MODERATE"/>
<ItemData ItemOID="IT.ADAE.AESEVN" Value="2"/>
<ItemData ItemOID="IT.ADAE.ASEV" Value="Moderate"/>
<ItemData ItemOID="IT.ADAE.ASEVN" Value="2"/>
<ItemData ItemOID="IT.ADAE.SEVGR1" Value="Non-severe"/>
<ItemData ItemOID="IT.ADAE.SEVGR1N" Value="1"/>
<ItemData ItemOID="IT.ADAE.AEREL" Value="NOT RELATED"/>
<ItemData ItemOID="IT.ADAE.AERELN" Value="1"/>
<ItemData ItemOID="IT.ADAE.AREL" Value="Not Related"/>
<ItemData ItemOID="IT.ADAE.ARELN" Value="1"/>
<ItemData ItemOID="IT.ADAE.AETOXGR" Value="2"/>
<ItemData ItemOID="IT.ADAE.AETOXGRN" Value="2"/>
<ItemData ItemOID="IT.ADAE.AEACN" Value="NOT APPLICABLE"/>
<ItemData ItemOID="IT.ADAE.AGE" Value="43"/>
<ItemData ItemOID="IT.ADAE.SEX" Value="M"/>
<ItemData ItemOID="IT.ADAE.TRTP" Value="TRT B"/>
<ItemData ItemOID="IT.ADAE.TRTEDT" Value="17626"/>
<ItemData ItemOID="IT.ADAE.TRTSDT" Value="17598"/>
<ItemData ItemOID="IT.ADAE.SAFFL" Value="Y"/>
<ItemData ItemOID="IT.ADAE.TRTPN" Value="2"/>
</ItemGroupData>
<ItemGroupData ItemGroupOID="IG.ADAE" data:ItemGroupDataSeq="24">
<ItemData ItemOID="IT.ADAE.STUDYID" Value="SASCSTDEMODATA"/>
<ItemData ItemOID="IT.ADAE.USUBJID" Value="S002P003"/>
<ItemData ItemOID="IT.ADAE.AESEQ" Value="24"/>
<ItemData ItemOID="IT.ADAE.AETERM" Value="RASH"/>
<ItemData ItemOID="IT.ADAE.AEDECOD" Value="Rash"/>
<ItemData ItemOID="IT.ADAE.AEBODSYS" Value="SKIN AND SUBCUTANEOUS TISSUE DISORDERS"/>
<ItemData ItemOID="IT.ADAE.AEBDSYCD" Value="10040785"/>
<ItemData ItemOID="IT.ADAE.AELLT" Value="Rash"/>
<ItemData ItemOID="IT.ADAE.AELLTCD" Value="10037844"/>
<ItemData ItemOID="IT.ADAE.AEPTCD" Value="10037844"/>
<ItemData ItemOID="IT.ADAE.AEHLT" Value="Rashes, eruptions and exanthems NEC"/>
<ItemData ItemOID="IT.ADAE.AEHLTCD" Value="10052566"/>
<ItemData ItemOID="IT.ADAE.AEHLGT" Value="Epidermal and dermal conditions"/>
<ItemData ItemOID="IT.ADAE.AEHLGTCD" Value="10014982"/>
<ItemData ItemOID="IT.ADAE.AESOC" Value="Skin and subcutaneous tissue disorders"/>
<ItemData ItemOID="IT.ADAE.AESOCCD" Value="10040785"/>
<ItemData ItemOID="IT.ADAE.AESTDTC" Value="2008-03-12T16:30"/>
<ItemData ItemOID="IT.ADAE.ASTDTM" Value="1520958600"/>
<ItemData ItemOID="IT.ADAE.AEENDTC" Value="2008-03-21"/>
<ItemData ItemOID="IT.ADAE.AENDTM" Value="1521720000"/>
<ItemData ItemOID="IT.ADAE.AENTMF" Value="H"/>
<ItemData ItemOID="IT.ADAE.ASTDY" Value="6"/>
<ItemData ItemOID="IT.ADAE.AENDY" Value="15"/>
<ItemData ItemOID="IT.ADAE.ADURN" Value="9"/>
<ItemData ItemOID="IT.ADAE.ADURU" Value="DAYS"/>
<ItemData ItemOID="IT.ADAE.AEDUR" Value="P9D"/>
<ItemData ItemOID="IT.ADAE.TRTEMFL" Value="Y"/>
<ItemData ItemOID="IT.ADAE.DOSEAEON" Value="40"/>
<ItemData ItemOID="IT.ADAE.DOSAEONU" Value="MG"/>
<ItemData ItemOID="IT.ADAE.DOSECUM" Value="120"/>
<ItemData ItemOID="IT.ADAE.DOSECUMU" Value="MG"/>
<ItemData ItemOID="IT.ADAE.AESER" Value="N"/>
<ItemData ItemOID="IT.ADAE.AESEV" Value="MILD"/>
<ItemData ItemOID="IT.ADAE.AESEVN" Value="1"/>
<ItemData ItemOID="IT.ADAE.ASEV" Value="Mild"/>
<ItemData ItemOID="IT.ADAE.ASEVN" Value="1"/>
<ItemData ItemOID="IT.ADAE.SEVGR1" Value="Non-severe"/>
<ItemData ItemOID="IT.ADAE.SEVGR1N" Value="1"/>
<ItemData ItemOID="IT.ADAE.AEREL" Value="LIKELY RELATED"/>
<ItemData ItemOID="IT.ADAE.AERELN" Value="2"/>
<ItemData ItemOID="IT.ADAE.AREL" Value="Likely Related"/>
<ItemData ItemOID="IT.ADAE.ARELN" Value="2"/>
<ItemData ItemOID="IT.ADAE.AETOXGR" Value="1"/>
<ItemData ItemOID="IT.ADAE.AETOXGRN" Value="1"/>
<ItemData ItemOID="IT.ADAE.AEACN" Value="DOSE REDUCED"/>
<ItemData ItemOID="IT.ADAE.CQ01NAM" Value="Pruritic or NOS rashes (CQ)"/>
<ItemData ItemOID="IT.ADAE.AGE" Value="43"/>
<ItemData ItemOID="IT.ADAE.SEX" Value="M"/>
<ItemData ItemOID="IT.ADAE.TRTP" Value="TRT B"/>
<ItemData ItemOID="IT.ADAE.TRTEDT" Value="17626"/>
<ItemData ItemOID="IT.ADAE.TRTSDT" Value="17598"/>
<ItemData ItemOID="IT.ADAE.SAFFL" Value="Y"/>
<ItemData ItemOID="IT.ADAE.TRTPN" Value="2"/>
</ItemGroupData>
<ItemGroupData ItemGroupOID="IG.ADAE" data:ItemGroupDataSeq="25">
<ItemData ItemOID="IT.ADAE.STUDYID" Value="SASCSTDEMODATA"/>
<ItemData ItemOID="IT.ADAE.USUBJID" Value="S002P004"/>
<ItemData ItemOID="IT.ADAE.AESEQ" Value="25"/>
<ItemData ItemOID="IT.ADAE.AETERM" Value="HEARTBURN-LIKE DYSPEPSIA"/>
<ItemData ItemOID="IT.ADAE.AEDECOD" Value="Dyspepsia"/>
<ItemData ItemOID="IT.ADAE.AEBODSYS" Value="GASTROINTESTINAL DISORDERS"/>
<ItemData ItemOID="IT.ADAE.AEBDSYCD" Value="10017947"/>
<ItemData ItemOID="IT.ADAE.AELLT" Value="Heartburn-like dyspepsia"/>
<ItemData ItemOID="IT.ADAE.AELLTCD" Value="10019328"/>
<ItemData ItemOID="IT.ADAE.AEPTCD" Value="10013946"/>
<ItemData ItemOID="IT.ADAE.AEHLT" Value="Dyspeptic signs and symptoms"/>
<ItemData ItemOID="IT.ADAE.AEHLTCD" Value="10013949"/>
<ItemData ItemOID="IT.ADAE.AEHLGT" Value="Gastrointestinal signs and symptoms"/>
<ItemData ItemOID="IT.ADAE.AEHLGTCD" Value="10018012"/>
<ItemData ItemOID="IT.ADAE.AESOC" Value="Gastrointestinal disorders"/>
<ItemData ItemOID="IT.ADAE.AESOCCD" Value="10017947"/>
<ItemData ItemOID="IT.ADAE.AESTDTC" Value="2008-04-13T-:30"/>
<ItemData ItemOID="IT.ADAE.ASTDTM" Value="1523709000"/>
<ItemData ItemOID="IT.ADAE.ASTTMF" Value="H"/>
<ItemData ItemOID="IT.ADAE.AEENDTC" Value="2008-04-16T24:00:00"/>
<ItemData ItemOID="IT.ADAE.ASTDY" Value="38"/>
<ItemData ItemOID="IT.ADAE.AENDY" Value="41"/>
<ItemData ItemOID="IT.ADAE.ADURN" Value="3"/>
<ItemData ItemOID="IT.ADAE.ADURU" Value="DAYS"/>
<ItemData ItemOID="IT.ADAE.AEDUR" Value="PT01M"/>
<ItemData ItemOID="IT.ADAE.FUPFL" Value="Y"/>
<ItemData ItemOID="IT.ADAE.AOCCFL" Value="Y"/>
<ItemData ItemOID="IT.ADAE.AOCCIFL" Value="Y"/>
<ItemData ItemOID="IT.ADAE.DOSEAEON" Value="80"/>
<ItemData ItemOID="IT.ADAE.DOSAEONU" Value="MG"/>
<ItemData ItemOID="IT.ADAE.DOSECUM" Value="80"/>
<ItemData ItemOID="IT.ADAE.DOSECUMU" Value="MG"/>
<ItemData ItemOID="IT.ADAE.AESER" Value="N"/>
<ItemData ItemOID="IT.ADAE.AESEV" Value="MILD"/>
<ItemData ItemOID="IT.ADAE.AESEVN" Value="1"/>
<ItemData ItemOID="IT.ADAE.ASEV" Value="Mild"/>
<ItemData ItemOID="IT.ADAE.ASEVN" Value="1"/>
<ItemData ItemOID="IT.ADAE.SEVGR1" Value="Non-severe"/>
<ItemData ItemOID="IT.ADAE.SEVGR1N" Value="1"/>
<ItemData ItemOID="IT.ADAE.AEREL" Value="NOT RELATED"/>
<ItemData ItemOID="IT.ADAE.AERELN" Value="1"/>
<ItemData ItemOID="IT.ADAE.AREL" Value="Not Related"/>
<ItemData ItemOID="IT.ADAE.ARELN" Value="1"/>
<ItemData ItemOID="IT.ADAE.AETOXGR" Value="1"/>
<ItemData ItemOID="IT.ADAE.AETOXGRN" Value="1"/>
<ItemData ItemOID="IT.ADAE.AEACN" Value="NOT APPLICABLE"/>
<ItemData ItemOID="IT.ADAE.AGE" Value="48"/>
<ItemData ItemOID="IT.ADAE.SEX" Value="M"/>
<ItemData ItemOID="IT.ADAE.TRTP" Value="TRT B"/>
<ItemData ItemOID="IT.ADAE.TRTEDT" Value="17640"/>
<ItemData ItemOID="IT.ADAE.TRTSDT" Value="17598"/>
<ItemData ItemOID="IT.ADAE.SAFFL" Value="Y"/>
<ItemData ItemOID="IT.ADAE.TRTPN" Value="2"/>
</ItemGroupData>
<ItemGroupData ItemGroupOID="IG.ADAE" data:ItemGroupDataSeq="26">
<ItemData ItemOID="IT.ADAE.STUDYID" Value="SASCSTDEMODATA"/>
<ItemData ItemOID="IT.ADAE.USUBJID" Value="S002P005"/>
<ItemData ItemOID="IT.ADAE.AESEQ" Value="27"/>
<ItemData ItemOID="IT.ADAE.AETERM" Value="RASH"/>
<ItemData ItemOID="IT.ADAE.AEDECOD" Value="Rash"/>
<ItemData ItemOID="IT.ADAE.AEBODSYS" Value="SKIN AND SUBCUTANEOUS TISSUE DISORDERS"/>
<ItemData ItemOID="IT.ADAE.AEBDSYCD" Value="10040785"/>
<ItemData ItemOID="IT.ADAE.AELLT" Value="Rash"/>
<ItemData ItemOID="IT.ADAE.AELLTCD" Value="10037844"/>
<ItemData ItemOID="IT.ADAE.AEPTCD" Value="10037844"/>
<ItemData ItemOID="IT.ADAE.AEHLT" Value="Rashes, eruptions and exanthems NEC"/>
<ItemData ItemOID="IT.ADAE.AEHLTCD" Value="10052566"/>
<ItemData ItemOID="IT.ADAE.AEHLGT" Value="Epidermal and dermal conditions"/>
<ItemData ItemOID="IT.ADAE.AEHLGTCD" Value="10014982"/>
<ItemData ItemOID="IT.ADAE.AESOC" Value="Skin and subcutaneous tissue disorders"/>
<ItemData ItemOID="IT.ADAE.AESOCCD" Value="10040785"/>
<ItemData ItemOID="IT.ADAE.AESTDTC" Value="2008-03-20T19:00"/>
<ItemData ItemOID="IT.ADAE.ASTDTM" Value="1521658800"/>
<ItemData ItemOID="IT.ADAE.AEENDTC" Value="2008-03-23T18:30"/>
<ItemData ItemOID="IT.ADAE.AENDTM" Value="1521916200"/>
<ItemData ItemOID="IT.ADAE.ASTDY" Value="11"/>
<ItemData ItemOID="IT.ADAE.AENDY" Value="14"/>
<ItemData ItemOID="IT.ADAE.ADURN" Value="3"/>
<ItemData ItemOID="IT.ADAE.ADURU" Value="DAYS"/>
<ItemData ItemOID="IT.ADAE.AEDUR" Value="P2DT23H30M"/>
<ItemData ItemOID="IT.ADAE.TRTEMFL" Value="Y"/>
<ItemData ItemOID="IT.ADAE.AOCCFL" Value="Y"/>
<ItemData ItemOID="IT.ADAE.AOCCIFL" Value="Y"/>
<ItemData ItemOID="IT.ADAE.DOSEAEON" Value="40"/>
<ItemData ItemOID="IT.ADAE.DOSAEONU" Value="MG"/>
<ItemData ItemOID="IT.ADAE.DOSECUM" Value="40"/>
<ItemData ItemOID="IT.ADAE.DOSECUMU" Value="MG"/>
<ItemData ItemOID="IT.ADAE.AESER" Value="N"/>
<ItemData ItemOID="IT.ADAE.AESEV" Value="MODERATE"/>
<ItemData ItemOID="IT.ADAE.AESEVN" Value="2"/>
<ItemData ItemOID="IT.ADAE.ASEV" Value="Moderate"/>
<ItemData ItemOID="IT.ADAE.ASEVN" Value="2"/>
<ItemData ItemOID="IT.ADAE.SEVGR1" Value="Non-severe"/>
<ItemData ItemOID="IT.ADAE.SEVGR1N" Value="1"/>
<ItemData ItemOID="IT.ADAE.AEREL" Value="LIKELY RELATED"/>
<ItemData ItemOID="IT.ADAE.AERELN" Value="2"/>
<ItemData ItemOID="IT.ADAE.AREL" Value="Likely Related"/>
<ItemData ItemOID="IT.ADAE.ARELN" Value="2"/>
<ItemData ItemOID="IT.ADAE.AETOXGR" Value="2"/>
<ItemData ItemOID="IT.ADAE.AETOXGRN" Value="2"/>
<ItemData ItemOID="IT.ADAE.AEACN" Value="NOT APPLICABLE"/>
<ItemData ItemOID="IT.ADAE.CQ01NAM" Value="Pruritic or NOS rashes (CQ)"/>
<ItemData ItemOID="IT.ADAE.AGE" Value="46"/>
<ItemData ItemOID="IT.ADAE.SEX" Value="F"/>
<ItemData ItemOID="IT.ADAE.TRTP" Value="TRT A"/>
<ItemData ItemOID="IT.ADAE.TRTEDT" Value="17629"/>
<ItemData ItemOID="IT.ADAE.TRTSDT" Value="17601"/>
<ItemData ItemOID="IT.ADAE.SAFFL" Value="Y"/>
<ItemData ItemOID="IT.ADAE.TRTPN" Value="1"/>
</ItemGroupData>
<ItemGroupData ItemGroupOID="IG.ADAE" data:ItemGroupDataSeq="27">
<ItemData ItemOID="IT.ADAE.STUDYID" Value="SASCSTDEMODATA"/>
<ItemData ItemOID="IT.ADAE.USUBJID" Value="S002P005"/>
<ItemData ItemOID="IT.ADAE.AESEQ" Value="26"/>
<ItemData ItemOID="IT.ADAE.AETERM" Value="RASH SCALY"/>
<ItemData ItemOID="IT.ADAE.AEDECOD" Value="Exfoliative rash"/>
<ItemData ItemOID="IT.ADAE.AEBODSYS" Value="SKIN AND SUBCUTANEOUS TISSUE DISORDERS"/>
<ItemData ItemOID="IT.ADAE.AEBDSYCD" Value="10040785"/>
<ItemData ItemOID="IT.ADAE.AELLT" Value="Rash scaly"/>
<ItemData ItemOID="IT.ADAE.AELLTCD" Value="10037889"/>
<ItemData ItemOID="IT.ADAE.AEPTCD" Value="10064579"/>
<ItemData ItemOID="IT.ADAE.AEHLT" Value="Exfoliative conditions"/>
<ItemData ItemOID="IT.ADAE.AEHLTCD" Value="10015664"/>
<ItemData ItemOID="IT.ADAE.AEHLGT" Value="Epidermal and dermal conditions"/>
<ItemData ItemOID="IT.ADAE.AEHLGTCD" Value="10014982"/>
<ItemData ItemOID="IT.ADAE.AESOC" Value="Skin and subcutaneous tissue disorders"/>
<ItemData ItemOID="IT.ADAE.AESOCCD" Value="10040785"/>
<ItemData ItemOID="IT.ADAE.AESTDTC" Value="2008-04-02"/>
<ItemData ItemOID="IT.ADAE.ASTDTM" Value="1522756800"/>
<ItemData ItemOID="IT.ADAE.ASTTMF" Value="H"/>
<ItemData ItemOID="IT.ADAE.AEENDTC" Value="2008-04-03T21:30"/>
<ItemData ItemOID="IT.ADAE.AENDTM" Value="1522877400"/>
<ItemData ItemOID="IT.ADAE.ASTDY" Value="24"/>
<ItemData ItemOID="IT.ADAE.AENDY" Value="25"/>
<ItemData ItemOID="IT.ADAE.ADURN" Value="1"/>
<ItemData ItemOID="IT.ADAE.ADURU" Value="DAYS"/>
<ItemData ItemOID="IT.ADAE.AEDUR" Value="P1D"/>
<ItemData ItemOID="IT.ADAE.DOSEAEON" Value="40"/>
<ItemData ItemOID="IT.ADAE.DOSAEONU" Value="MG"/>
<ItemData ItemOID="IT.ADAE.DOSECUM" Value="40"/>
<ItemData ItemOID="IT.ADAE.DOSECUMU" Value="MG"/>
<ItemData ItemOID="IT.ADAE.AESER" Value="N"/>
<ItemData ItemOID="IT.ADAE.AESEV" Value="MILD"/>
<ItemData ItemOID="IT.ADAE.AESEVN" Value="1"/>
<ItemData ItemOID="IT.ADAE.ASEV" Value="Mild"/>
<ItemData ItemOID="IT.ADAE.ASEVN" Value="1"/>
<ItemData ItemOID="IT.ADAE.SEVGR1" Value="Non-severe"/>
<ItemData ItemOID="IT.ADAE.SEVGR1N" Value="1"/>
<ItemData ItemOID="IT.ADAE.AEREL" Value="LIKELY RELATED"/>
<ItemData ItemOID="IT.ADAE.AERELN" Value="2"/>
<ItemData ItemOID="IT.ADAE.AREL" Value="Likely Related"/>
<ItemData ItemOID="IT.ADAE.ARELN" Value="2"/>
<ItemData ItemOID="IT.ADAE.AETOXGR" Value="1"/>
<ItemData ItemOID="IT.ADAE.AETOXGRN" Value="1"/>
<ItemData ItemOID="IT.ADAE.AEACN" Value="NOT APPLICABLE"/>
<ItemData ItemOID="IT.ADAE.CQ01NAM" Value="Pruritic or NOS rashes (CQ)"/>
<ItemData ItemOID="IT.ADAE.AGE" Value="46"/>
<ItemData ItemOID="IT.ADAE.SEX" Value="F"/>
<ItemData ItemOID="IT.ADAE.TRTP" Value="TRT A"/>
<ItemData ItemOID="IT.ADAE.TRTEDT" Value="17629"/>
<ItemData ItemOID="IT.ADAE.TRTSDT" Value="17601"/>
<ItemData ItemOID="IT.ADAE.SAFFL" Value="Y"/>
<ItemData ItemOID="IT.ADAE.TRTPN" Value="1"/>
</ItemGroupData>
<ItemGroupData ItemGroupOID="IG.ADAE" data:ItemGroupDataSeq="28">
<ItemData ItemOID="IT.ADAE.STUDYID" Value="SASCSTDEMODATA"/>
<ItemData ItemOID="IT.ADAE.USUBJID" Value="S002P006"/>
<ItemData ItemOID="IT.ADAE.AESEQ" Value="28"/>
<ItemData ItemOID="IT.ADAE.AETERM" Value="ACID REFLUX (OESOPHAGEAL)"/>
<ItemData ItemOID="IT.ADAE.AEDECOD" Value="Gastrooesophageal reflux disease"/>
<ItemData ItemOID="IT.ADAE.AEBODSYS" Value="GASTROINTESTINAL DISORDERS"/>
<ItemData ItemOID="IT.ADAE.AEBDSYCD" Value="10017947"/>
<ItemData ItemOID="IT.ADAE.AELLT" Value="Acid reflux (oesophageal)"/>
<ItemData ItemOID="IT.ADAE.AELLTCD" Value="10000479"/>
<ItemData ItemOID="IT.ADAE.AEPTCD" Value="10017885"/>
<ItemData ItemOID="IT.ADAE.AEHLT" Value="Gastrointestinal atonic and hypomotility disorders NEC"/>
<ItemData ItemOID="IT.ADAE.AEHLTCD" Value="10017933"/>
<ItemData ItemOID="IT.ADAE.AEHLGT" Value="Gastrointestinal motility and defaecation conditions"/>
<ItemData ItemOID="IT.ADAE.AEHLGTCD" Value="10017977"/>
<ItemData ItemOID="IT.ADAE.AESOC" Value="Gastrointestinal disorders"/>
<ItemData ItemOID="IT.ADAE.AESOCCD" Value="10017947"/>
<ItemData ItemOID="IT.ADAE.AESTDTC" Value="2008-04-15T18:00"/>
<ItemData ItemOID="IT.ADAE.ASTDTM" Value="1523901600"/>
<ItemData ItemOID="IT.ADAE.AEENDTC" Value="2008-04-16T08:00"/>
<ItemData ItemOID="IT.ADAE.AENDTM" Value="1523952000"/>
<ItemData ItemOID="IT.ADAE.ASTDY" Value="35"/>
<ItemData ItemOID="IT.ADAE.AENDY" Value="36"/>
<ItemData ItemOID="IT.ADAE.ADURN" Value="1"/>
<ItemData ItemOID="IT.ADAE.ADURU" Value="DAYS"/>
<ItemData ItemOID="IT.ADAE.AEDUR" Value="P0DT14H"/>
<ItemData ItemOID="IT.ADAE.AOCCFL" Value="Y"/>
<ItemData ItemOID="IT.ADAE.AOCCIFL" Value="Y"/>
<ItemData ItemOID="IT.ADAE.DOSEAEON" Value="120"/>
<ItemData ItemOID="IT.ADAE.DOSAEONU" Value="MG"/>
<ItemData ItemOID="IT.ADAE.DOSECUM" Value="120"/>
<ItemData ItemOID="IT.ADAE.DOSECUMU" Value="MG"/>
<ItemData ItemOID="IT.ADAE.AESER" Value="N"/>
<ItemData ItemOID="IT.ADAE.AESEV" Value="SEVERE"/>
<ItemData ItemOID="IT.ADAE.AESEVN" Value="3"/>
<ItemData ItemOID="IT.ADAE.ASEV" Value="Severe"/>
<ItemData ItemOID="IT.ADAE.ASEVN" Value="3"/>
<ItemData ItemOID="IT.ADAE.SEVGR1" Value="Severe"/>
<ItemData ItemOID="IT.ADAE.SEVGR1N" Value="2"/>
<ItemData ItemOID="IT.ADAE.AEREL" Value="NOT RELATED"/>
<ItemData ItemOID="IT.ADAE.AERELN" Value="1"/>
<ItemData ItemOID="IT.ADAE.AREL" Value="Not Related"/>
<ItemData ItemOID="IT.ADAE.ARELN" Value="1"/>
<ItemData ItemOID="IT.ADAE.AETOXGR" Value="3"/>
<ItemData ItemOID="IT.ADAE.AETOXGRN" Value="3"/>
<ItemData ItemOID="IT.ADAE.AEACN" Value="NOT APPLICABLE"/>
<ItemData ItemOID="IT.ADAE.AGE" Value="32"/>
<ItemData ItemOID="IT.ADAE.SEX" Value="F"/>
<ItemData ItemOID="IT.ADAE.TRTP" Value="TRT C"/>
<ItemData ItemOID="IT.ADAE.TRTEDT" Value="17645"/>
<ItemData ItemOID="IT.ADAE.TRTSDT" Value="17603"/>
<ItemData ItemOID="IT.ADAE.SAFFL" Value="Y"/>
<ItemData ItemOID="IT.ADAE.TRTPN" Value="3"/>
</ItemGroupData>
<ItemGroupData ItemGroupOID="IG.ADAE" data:ItemGroupDataSeq="29">
<ItemData ItemOID="IT.ADAE.STUDYID" Value="SASCSTDEMODATA"/>
<ItemData ItemOID="IT.ADAE.USUBJID" Value="S002P008"/>
<ItemData ItemOID="IT.ADAE.AESEQ" Value="30"/>
<ItemData ItemOID="IT.ADAE.AETERM" Value="ABDOMINAL CRAMP"/>
<ItemData ItemOID="IT.ADAE.AEDECOD" Value="Abdominal pain"/>
<ItemData ItemOID="IT.ADAE.AEBODSYS" Value="GASTROINTESTINAL DISORDERS"/>
<ItemData ItemOID="IT.ADAE.AEBDSYCD" Value="10017947"/>
<ItemData ItemOID="IT.ADAE.AELLT" Value="Abdominal cramp"/>
<ItemData ItemOID="IT.ADAE.AELLTCD" Value="10000056"/>
<ItemData ItemOID="IT.ADAE.AEPTCD" Value="10000081"/>
<ItemData ItemOID="IT.ADAE.AEHLT" Value="Gastrointestinal and abdominal pains (excl oral and throat)"/>
<ItemData ItemOID="IT.ADAE.AEHLTCD" Value="10017926"/>
<ItemData ItemOID="IT.ADAE.AEHLGT" Value="Gastrointestinal signs and symptoms"/>
<ItemData ItemOID="IT.ADAE.AEHLGTCD" Value="10018012"/>
<ItemData ItemOID="IT.ADAE.AESOC" Value="Gastrointestinal disorders"/>
<ItemData ItemOID="IT.ADAE.AESOCCD" Value="10017947"/>
<ItemData ItemOID="IT.ADAE.AESTDTC" Value="2008-04-08T15:30"/>
<ItemData ItemOID="IT.ADAE.ASTDTM" Value="1523287800"/>
<ItemData ItemOID="IT.ADAE.AEENDTC" Value="2008-04-13T03:00"/>
<ItemData ItemOID="IT.ADAE.AENDTM" Value="1523674800"/>
<ItemData ItemOID="IT.ADAE.ASTDY" Value="22"/>
<ItemData ItemOID="IT.ADAE.AENDY" Value="27"/>
<ItemData ItemOID="IT.ADAE.ADURN" Value="5"/>
<ItemData ItemOID="IT.ADAE.ADURU" Value="DAYS"/>
<ItemData ItemOID="IT.ADAE.AEDUR" Value="P4DT11H30M"/>
<ItemData ItemOID="IT.ADAE.TRTEMFL" Value="Y"/>
<ItemData ItemOID="IT.ADAE.DOSEAEON" Value="120"/>
<ItemData ItemOID="IT.ADAE.DOSAEONU" Value="MG"/>
<ItemData ItemOID="IT.ADAE.DOSECUM" Value="120"/>
<ItemData ItemOID="IT.ADAE.DOSECUMU" Value="MG"/>
<ItemData ItemOID="IT.ADAE.AESER" Value="N"/>
<ItemData ItemOID="IT.ADAE.AESEV" Value="MILD"/>
<ItemData ItemOID="IT.ADAE.AESEVN" Value="1"/>
<ItemData ItemOID="IT.ADAE.ASEV" Value="Mild"/>
<ItemData ItemOID="IT.ADAE.ASEVN" Value="1"/>
<ItemData ItemOID="IT.ADAE.SEVGR1" Value="Non-severe"/>
<ItemData ItemOID="IT.ADAE.SEVGR1N" Value="1"/>
<ItemData ItemOID="IT.ADAE.AEREL" Value="NOT RELATED"/>
<ItemData ItemOID="IT.ADAE.AERELN" Value="1"/>
<ItemData ItemOID="IT.ADAE.AREL" Value="Not Related"/>
<ItemData ItemOID="IT.ADAE.ARELN" Value="1"/>
<ItemData ItemOID="IT.ADAE.AETOXGR" Value="1"/>
<ItemData ItemOID="IT.ADAE.AETOXGRN" Value="1"/>
<ItemData ItemOID="IT.ADAE.AEACN" Value="NOT APPLICABLE"/>
<ItemData ItemOID="IT.ADAE.AGE" Value="54"/>
<ItemData ItemOID="IT.ADAE.SEX" Value="M"/>
<ItemData ItemOID="IT.ADAE.TRTP" Value="TRT C"/>
<ItemData ItemOID="IT.ADAE.TRTEDT" Value="17637"/>
<ItemData ItemOID="IT.ADAE.TRTSDT" Value="17608"/>
<ItemData ItemOID="IT.ADAE.SAFFL" Value="Y"/>
<ItemData ItemOID="IT.ADAE.TRTPN" Value="3"/>
</ItemGroupData>
<ItemGroupData ItemGroupOID="IG.ADAE" data:ItemGroupDataSeq="30">
<ItemData ItemOID="IT.ADAE.STUDYID" Value="SASCSTDEMODATA"/>
<ItemData ItemOID="IT.ADAE.USUBJID" Value="S002P008"/>
<ItemData ItemOID="IT.ADAE.AESEQ" Value="29"/>
<ItemData ItemOID="IT.ADAE.AETERM" Value="ABDOMINAL DISCOMFORT"/>
<ItemData ItemOID="IT.ADAE.AEDECOD" Value="Abdominal discomfort"/>
<ItemData ItemOID="IT.ADAE.AEBODSYS" Value="GASTROINTESTINAL DISORDERS"/>
<ItemData ItemOID="IT.ADAE.AEBDSYCD" Value="10017947"/>
<ItemData ItemOID="IT.ADAE.AELLT" Value="Abdominal discomfort"/>
<ItemData ItemOID="IT.ADAE.AELLTCD" Value="10000059"/>
<ItemData ItemOID="IT.ADAE.AEPTCD" Value="10000059"/>
<ItemData ItemOID="IT.ADAE.AEHLT" Value="Gastrointestinal signs and symptoms NEC"/>
<ItemData ItemOID="IT.ADAE.AEHLTCD" Value="10027678"/>
<ItemData ItemOID="IT.ADAE.AEHLGT" Value="Gastrointestinal signs and symptoms"/>
<ItemData ItemOID="IT.ADAE.AEHLGTCD" Value="10018012"/>
<ItemData ItemOID="IT.ADAE.AESOC" Value="Gastrointestinal disorders"/>
<ItemData ItemOID="IT.ADAE.AESOCCD" Value="10017947"/>
<ItemData ItemOID="IT.ADAE.AESTDTC" Value="2008-03-23"/>
<ItemData ItemOID="IT.ADAE.ASTDTM" Value="1521892800"/>
<ItemData ItemOID="IT.ADAE.ASTTMF" Value="H"/>
<ItemData ItemOID="IT.ADAE.AEENDTC" Value="2008-03-30T12:00"/>
<ItemData ItemOID="IT.ADAE.AENDTM" Value="1522497600"/>
<ItemData ItemOID="IT.ADAE.ASTDY" Value="7"/>
<ItemData ItemOID="IT.ADAE.AENDY" Value="14"/>
<ItemData ItemOID="IT.ADAE.ADURN" Value="7"/>
<ItemData ItemOID="IT.ADAE.ADURU" Value="DAYS"/>
<ItemData ItemOID="IT.ADAE.AEDUR" Value="P7D"/>
<ItemData ItemOID="IT.ADAE.TRTEMFL" Value="Y"/>
<ItemData ItemOID="IT.ADAE.AOCCFL" Value="Y"/>
<ItemData ItemOID="IT.ADAE.AOCCIFL" Value="Y"/>
<ItemData ItemOID="IT.ADAE.DOSEAEON" Value="120"/>
<ItemData ItemOID="IT.ADAE.DOSAEONU" Value="MG"/>
<ItemData ItemOID="IT.ADAE.DOSECUM" Value="120"/>
<ItemData ItemOID="IT.ADAE.DOSECUMU" Value="MG"/>
<ItemData ItemOID="IT.ADAE.AESER" Value="N"/>
<ItemData ItemOID="IT.ADAE.AESEV" Value="SEVERE"/>
<ItemData ItemOID="IT.ADAE.AESEVN" Value="3"/>
<ItemData ItemOID="IT.ADAE.ASEV" Value="Severe"/>
<ItemData ItemOID="IT.ADAE.ASEVN" Value="3"/>
<ItemData ItemOID="IT.ADAE.SEVGR1" Value="Severe"/>
<ItemData ItemOID="IT.ADAE.SEVGR1N" Value="2"/>
<ItemData ItemOID="IT.ADAE.AEREL" Value="NOT RELATED"/>
<ItemData ItemOID="IT.ADAE.AERELN" Value="1"/>
<ItemData ItemOID="IT.ADAE.AREL" Value="Not Related"/>
<ItemData ItemOID="IT.ADAE.ARELN" Value="1"/>
<ItemData ItemOID="IT.ADAE.AETOXGR" Value="3"/>
<ItemData ItemOID="IT.ADAE.AETOXGRN" Value="3"/>
<ItemData ItemOID="IT.ADAE.AEACN" Value="NOT APPLICABLE"/>
<ItemData ItemOID="IT.ADAE.AGE" Value="54"/>
<ItemData ItemOID="IT.ADAE.SEX" Value="M"/>
<ItemData ItemOID="IT.ADAE.TRTP" Value="TRT C"/>
<ItemData ItemOID="IT.ADAE.TRTEDT" Value="17637"/>
<ItemData ItemOID="IT.ADAE.TRTSDT" Value="17608"/>
<ItemData ItemOID="IT.ADAE.SAFFL" Value="Y"/>
<ItemData ItemOID="IT.ADAE.TRTPN" Value="3"/>
</ItemGroupData>
<ItemGroupData ItemGroupOID="IG.ADAE" data:ItemGroupDataSeq="31">
<ItemData ItemOID="IT.ADAE.STUDYID" Value="SASCSTDEMODATA"/>
<ItemData ItemOID="IT.ADAE.USUBJID" Value="S002P009"/>
<ItemData ItemOID="IT.ADAE.AESEQ" Value="31"/>
<ItemData ItemOID="IT.ADAE.AETERM" Value="RASH"/>
<ItemData ItemOID="IT.ADAE.AEDECOD" Value="Rash"/>
<ItemData ItemOID="IT.ADAE.AEBODSYS" Value="SKIN AND SUBCUTANEOUS TISSUE DISORDERS"/>
<ItemData ItemOID="IT.ADAE.AEBDSYCD" Value="10040785"/>
<ItemData ItemOID="IT.ADAE.AELLT" Value="Rash"/>
<ItemData ItemOID="IT.ADAE.AELLTCD" Value="10037844"/>
<ItemData ItemOID="IT.ADAE.AEPTCD" Value="10037844"/>
<ItemData ItemOID="IT.ADAE.AEHLT" Value="Rashes, eruptions and exanthems NEC"/>
<ItemData ItemOID="IT.ADAE.AEHLTCD" Value="10052566"/>
<ItemData ItemOID="IT.ADAE.AEHLGT" Value="Epidermal and dermal conditions"/>
<ItemData ItemOID="IT.ADAE.AEHLGTCD" Value="10014982"/>
<ItemData ItemOID="IT.ADAE.AESOC" Value="Skin and subcutaneous tissue disorders"/>
<ItemData ItemOID="IT.ADAE.AESOCCD" Value="10040785"/>
<ItemData ItemOID="IT.ADAE.AESTDTC" Value="2008-04-09"/>
<ItemData ItemOID="IT.ADAE.ASTDTM" Value="1523361600"/>
<ItemData ItemOID="IT.ADAE.ASTTMF" Value="H"/>
<ItemData ItemOID="IT.ADAE.AEENDTC" Value="2008-04-16"/>
<ItemData ItemOID="IT.ADAE.AENDTM" Value="1523966400"/>
<ItemData ItemOID="IT.ADAE.AENTMF" Value="H"/>
<ItemData ItemOID="IT.ADAE.ASTDY" Value="22"/>
<ItemData ItemOID="IT.ADAE.AENDY" Value="29"/>
<ItemData ItemOID="IT.ADAE.ADURN" Value="7"/>
<ItemData ItemOID="IT.ADAE.ADURU" Value="DAYS"/>
<ItemData ItemOID="IT.ADAE.AEDUR" Value="P7D"/>
<ItemData ItemOID="IT.ADAE.AOCCFL" Value="Y"/>
<ItemData ItemOID="IT.ADAE.AOCCIFL" Value="Y"/>
<ItemData ItemOID="IT.ADAE.DOSEAEON" Value="120"/>
<ItemData ItemOID="IT.ADAE.DOSAEONU" Value="MG"/>
<ItemData ItemOID="IT.ADAE.DOSECUM" Value="120"/>
<ItemData ItemOID="IT.ADAE.DOSECUMU" Value="MG"/>
<ItemData ItemOID="IT.ADAE.AESER" Value="N"/>
<ItemData ItemOID="IT.ADAE.AESEV" Value="MODERATE"/>
<ItemData ItemOID="IT.ADAE.AESEVN" Value="2"/>
<ItemData ItemOID="IT.ADAE.ASEV" Value="Moderate"/>
<ItemData ItemOID="IT.ADAE.ASEVN" Value="2"/>
<ItemData ItemOID="IT.ADAE.SEVGR1" Value="Non-severe"/>
<ItemData ItemOID="IT.ADAE.SEVGR1N" Value="1"/>
<ItemData ItemOID="IT.ADAE.AEREL" Value="RELATED"/>
<ItemData ItemOID="IT.ADAE.AERELN" Value="3"/>
<ItemData ItemOID="IT.ADAE.AREL" Value="Related"/>
<ItemData ItemOID="IT.ADAE.ARELN" Value="3"/>
<ItemData ItemOID="IT.ADAE.AETOXGR" Value="2"/>
<ItemData ItemOID="IT.ADAE.AETOXGRN" Value="2"/>
<ItemData ItemOID="IT.ADAE.AEACN" Value="WITHDRAWN"/>
<ItemData ItemOID="IT.ADAE.CQ01NAM" Value="Pruritic or NOS rashes (CQ)"/>
<ItemData ItemOID="IT.ADAE.AGE" Value="21"/>
<ItemData ItemOID="IT.ADAE.SEX" Value="M"/>
<ItemData ItemOID="IT.ADAE.TRTP" Value="TRT C"/>
<ItemData ItemOID="IT.ADAE.TRTEDT" Value="17638"/>
<ItemData ItemOID="IT.ADAE.TRTSDT" Value="17609"/>
<ItemData ItemOID="IT.ADAE.SAFFL" Value="Y"/>
<ItemData ItemOID="IT.ADAE.TRTPN" Value="3"/>
</ItemGroupData>
<ItemGroupData ItemGroupOID="IG.ADAE" data:ItemGroupDataSeq="32">
<ItemData ItemOID="IT.ADAE.STUDYID" Value="SASCSTDEMODATA"/>
<ItemData ItemOID="IT.ADAE.USUBJID" Value="S002P010"/>
<ItemData ItemOID="IT.ADAE.AESEQ" Value="32"/>
<ItemData ItemOID="IT.ADAE.AETERM" Value="DIARRHEA"/>
<ItemData ItemOID="IT.ADAE.AEDECOD" Value="Diarrhoea"/>
<ItemData ItemOID="IT.ADAE.AEBODSYS" Value="GASTROINTESTINAL DISORDERS"/>
<ItemData ItemOID="IT.ADAE.AEBDSYCD" Value="10017947"/>
<ItemData ItemOID="IT.ADAE.AELLT" Value="Diarrhea"/>
<ItemData ItemOID="IT.ADAE.AELLTCD" Value="10012727"/>
<ItemData ItemOID="IT.ADAE.AEPTCD" Value="10012735"/>
<ItemData ItemOID="IT.ADAE.AEHLT" Value="Diarrhoea (excl infective)"/>
<ItemData ItemOID="IT.ADAE.AEHLTCD" Value="10012736"/>
<ItemData ItemOID="IT.ADAE.AEHLGT" Value="Gastrointestinal motility and defaecation conditions"/>
<ItemData ItemOID="IT.ADAE.AEHLGTCD" Value="10017977"/>
<ItemData ItemOID="IT.ADAE.AESOC" Value="Gastrointestinal disorders"/>
<ItemData ItemOID="IT.ADAE.AESOCCD" Value="10017947"/>
<ItemData ItemOID="IT.ADAE.AESTDTC" Value="2008-03-26T13:00"/>
<ItemData ItemOID="IT.ADAE.ASTDTM" Value="1522155600"/>
<ItemData ItemOID="IT.ADAE.AEENDTC" Value="2008-04-01T04:00"/>
<ItemData ItemOID="IT.ADAE.AENDTM" Value="1522641600"/>
<ItemData ItemOID="IT.ADAE.ASTDY" Value="8"/>
<ItemData ItemOID="IT.ADAE.AENDY" Value="14"/>
<ItemData ItemOID="IT.ADAE.ADURN" Value="6"/>
<ItemData ItemOID="IT.ADAE.ADURU" Value="DAYS"/>
<ItemData ItemOID="IT.ADAE.AEDUR" Value="P5DT15H"/>
<ItemData ItemOID="IT.ADAE.TRTEMFL" Value="Y"/>
<ItemData ItemOID="IT.ADAE.AOCCFL" Value="Y"/>
<ItemData ItemOID="IT.ADAE.AOCCIFL" Value="Y"/>
<ItemData ItemOID="IT.ADAE.DOSEAEON" Value="80"/>
<ItemData ItemOID="IT.ADAE.DOSAEONU" Value="MG"/>
<ItemData ItemOID="IT.ADAE.DOSECUM" Value="80"/>
<ItemData ItemOID="IT.ADAE.DOSECUMU" Value="MG"/>
<ItemData ItemOID="IT.ADAE.AESER" Value="N"/>
<ItemData ItemOID="IT.ADAE.AESEV" Value="MODERATE"/>
<ItemData ItemOID="IT.ADAE.AESEVN" Value="2"/>
<ItemData ItemOID="IT.ADAE.ASEV" Value="Moderate"/>
<ItemData ItemOID="IT.ADAE.ASEVN" Value="2"/>
<ItemData ItemOID="IT.ADAE.SEVGR1" Value="Non-severe"/>
<ItemData ItemOID="IT.ADAE.SEVGR1N" Value="1"/>
<ItemData ItemOID="IT.ADAE.AREL" Value="Other"/>
<ItemData ItemOID="IT.ADAE.AETOXGR" Value="2"/>
<ItemData ItemOID="IT.ADAE.AETOXGRN" Value="2"/>
<ItemData ItemOID="IT.ADAE.AEACN" Value="NOT APPLICABLE"/>
<ItemData ItemOID="IT.ADAE.SMQ01NAM" Value="Gastrointestinal nonspecific symptoms and therapeutic procedures (SMQ)"/>
<ItemData ItemOID="IT.ADAE.SMQ01CD" Value="20000140"/>
<ItemData ItemOID="IT.ADAE.SMQ01SC" Value="NARROW"/>
<ItemData ItemOID="IT.ADAE.SMQ01SCN" Value="2"/>
<ItemData ItemOID="IT.ADAE.AGE" Value="38"/>
<ItemData ItemOID="IT.ADAE.SEX" Value="F"/>
<ItemData ItemOID="IT.ADAE.TRTP" Value="TRT B"/>
<ItemData ItemOID="IT.ADAE.TRTEDT" Value="17653"/>
<ItemData ItemOID="IT.ADAE.TRTSDT" Value="17611"/>
<ItemData ItemOID="IT.ADAE.SAFFL" Value="Y"/>
<ItemData ItemOID="IT.ADAE.TRTPN" Value="2"/>
</ItemGroupData>
<ItemGroupData ItemGroupOID="IG.ADAE" data:ItemGroupDataSeq="33">
<ItemData ItemOID="IT.ADAE.STUDYID" Value="SASCSTDEMODATA"/>
<ItemData ItemOID="IT.ADAE.USUBJID" Value="S002P010"/>
<ItemData ItemOID="IT.ADAE.AESEQ" Value="33"/>
<ItemData ItemOID="IT.ADAE.AETERM" Value="DIARRHEA"/>
<ItemData ItemOID="IT.ADAE.AEDECOD" Value="Diarrhoea"/>
<ItemData ItemOID="IT.ADAE.AEBODSYS" Value="GASTROINTESTINAL DISORDERS"/>
<ItemData ItemOID="IT.ADAE.AEBDSYCD" Value="10017947"/>
<ItemData ItemOID="IT.ADAE.AELLT" Value="Diarrhea"/>
<ItemData ItemOID="IT.ADAE.AELLTCD" Value="10012727"/>
<ItemData ItemOID="IT.ADAE.AEPTCD" Value="10012735"/>
<ItemData ItemOID="IT.ADAE.AEHLT" Value="Diarrhoea (excl infective)"/>
<ItemData ItemOID="IT.ADAE.AEHLTCD" Value="10012736"/>
<ItemData ItemOID="IT.ADAE.AEHLGT" Value="Gastrointestinal motility and defaecation conditions"/>
<ItemData ItemOID="IT.ADAE.AEHLGTCD" Value="10017977"/>
<ItemData ItemOID="IT.ADAE.AESOC" Value="Gastrointestinal disorders"/>
<ItemData ItemOID="IT.ADAE.AESOCCD" Value="10017947"/>
<ItemData ItemOID="IT.ADAE.AESTDTC" Value="2008-04-10T08:00"/>
<ItemData ItemOID="IT.ADAE.ASTDTM" Value="1523433600"/>
<ItemData ItemOID="IT.ADAE.AEENDTC" Value="2008-04-16T14:30"/>
<ItemData ItemOID="IT.ADAE.AENDTM" Value="1523975400"/>
<ItemData ItemOID="IT.ADAE.ASTDY" Value="22"/>
<ItemData ItemOID="IT.ADAE.AENDY" Value="28"/>
<ItemData ItemOID="IT.ADAE.ADURN" Value="6"/>
<ItemData ItemOID="IT.ADAE.ADURU" Value="DAYS"/>
<ItemData ItemOID="IT.ADAE.AEDUR" Value="P6DT6H30M"/>
<ItemData ItemOID="IT.ADAE.TRTEMFL" Value="Y"/>
<ItemData ItemOID="IT.ADAE.DOSEAEON" Value="80"/>
<ItemData ItemOID="IT.ADAE.DOSAEONU" Value="MG"/>
<ItemData ItemOID="IT.ADAE.DOSECUM" Value="80"/>
<ItemData ItemOID="IT.ADAE.DOSECUMU" Value="MG"/>
<ItemData ItemOID="IT.ADAE.AESER" Value="N"/>
<ItemData ItemOID="IT.ADAE.AESEV" Value="MILD"/>
<ItemData ItemOID="IT.ADAE.AESEVN" Value="1"/>
<ItemData ItemOID="IT.ADAE.ASEV" Value="Mild"/>
<ItemData ItemOID="IT.ADAE.ASEVN" Value="1"/>
<ItemData ItemOID="IT.ADAE.SEVGR1" Value="Non-severe"/>
<ItemData ItemOID="IT.ADAE.SEVGR1N" Value="1"/>
<ItemData ItemOID="IT.ADAE.AEREL" Value="NOT RELATED"/>
<ItemData ItemOID="IT.ADAE.AERELN" Value="1"/>
<ItemData ItemOID="IT.ADAE.AREL" Value="Not Related"/>
<ItemData ItemOID="IT.ADAE.ARELN" Value="1"/>
<ItemData ItemOID="IT.ADAE.AETOXGR" Value="1"/>
<ItemData ItemOID="IT.ADAE.AETOXGRN" Value="1"/>
<ItemData ItemOID="IT.ADAE.AEACN" Value="NOT APPLICABLE"/>
<ItemData ItemOID="IT.ADAE.SMQ01NAM" Value="Gastrointestinal nonspecific symptoms and therapeutic procedures (SMQ)"/>
<ItemData ItemOID="IT.ADAE.SMQ01CD" Value="20000140"/>
<ItemData ItemOID="IT.ADAE.SMQ01SC" Value="NARROW"/>
<ItemData ItemOID="IT.ADAE.SMQ01SCN" Value="2"/>
<ItemData ItemOID="IT.ADAE.AGE" Value="38"/>
<ItemData ItemOID="IT.ADAE.SEX" Value="F"/>
<ItemData ItemOID="IT.ADAE.TRTP" Value="TRT B"/>
<ItemData ItemOID="IT.ADAE.TRTEDT" Value="17653"/>
<ItemData ItemOID="IT.ADAE.TRTSDT" Value="17611"/>
<ItemData ItemOID="IT.ADAE.SAFFL" Value="Y"/>
<ItemData ItemOID="IT.ADAE.TRTPN" Value="2"/>
</ItemGroupData>
<ItemGroupData ItemGroupOID="IG.ADAE" data:ItemGroupDataSeq="34">
<ItemData ItemOID="IT.ADAE.STUDYID" Value="SASCSTDEMODATA"/>
<ItemData ItemOID="IT.ADAE.USUBJID" Value="S002P010"/>
<ItemData ItemOID="IT.ADAE.AESEQ" Value="35"/>
<ItemData ItemOID="IT.ADAE.AETERM" Value="HEADACHE"/>
<ItemData ItemOID="IT.ADAE.AEDECOD" Value="Headache"/>
<ItemData ItemOID="IT.ADAE.AEBODSYS" Value="NERVOUS SYSTEM DISORDERS"/>
<ItemData ItemOID="IT.ADAE.AEBDSYCD" Value="10029205"/>
<ItemData ItemOID="IT.ADAE.AELLT" Value="Headache"/>
<ItemData ItemOID="IT.ADAE.AELLTCD" Value="10019211"/>
<ItemData ItemOID="IT.ADAE.AEPTCD" Value="10019211"/>
<ItemData ItemOID="IT.ADAE.AEHLT" Value="Headaches NEC"/>
<ItemData ItemOID="IT.ADAE.AEHLTCD" Value="10019233"/>
<ItemData ItemOID="IT.ADAE.AEHLGT" Value="Headaches"/>
<ItemData ItemOID="IT.ADAE.AEHLGTCD" Value="10019231"/>
<ItemData ItemOID="IT.ADAE.AESOC" Value="Nervous system disorders"/>
<ItemData ItemOID="IT.ADAE.AESOCCD" Value="10029205"/>
<ItemData ItemOID="IT.ADAE.AESTDTC" Value="2008-03-27T02:30"/>
<ItemData ItemOID="IT.ADAE.ASTDTM" Value="1522204200"/>
<ItemData ItemOID="IT.ADAE.AEENDTC" Value="2008-03-31T19:00"/>
<ItemData ItemOID="IT.ADAE.AENDTM" Value="1522609200"/>
<ItemData ItemOID="IT.ADAE.ASTDY" Value="9"/>
<ItemData ItemOID="IT.ADAE.AENDY" Value="13"/>
<ItemData ItemOID="IT.ADAE.ADURN" Value="4"/>
<ItemData ItemOID="IT.ADAE.ADURU" Value="DAYS"/>
<ItemData ItemOID="IT.ADAE.AEDUR" Value="P4DT16H30M"/>
<ItemData ItemOID="IT.ADAE.TRTEMFL" Value="Y"/>
<ItemData ItemOID="IT.ADAE.DOSEAEON" Value="80"/>
<ItemData ItemOID="IT.ADAE.DOSAEONU" Value="MG"/>
<ItemData ItemOID="IT.ADAE.DOSECUM" Value="80"/>
<ItemData ItemOID="IT.ADAE.DOSECUMU" Value="MG"/>
<ItemData ItemOID="IT.ADAE.AESER" Value="N"/>
<ItemData ItemOID="IT.ADAE.ASEV" Value="Other"/>
<ItemData ItemOID="IT.ADAE.AEREL" Value="NOT RELATED"/>
<ItemData ItemOID="IT.ADAE.AERELN" Value="1"/>
<ItemData ItemOID="IT.ADAE.AREL" Value="Not Related"/>
<ItemData ItemOID="IT.ADAE.ARELN" Value="1"/>
<ItemData ItemOID="IT.ADAE.AETOXGRN" Value="1"/>
<ItemData ItemOID="IT.ADAE.AEACN" Value="NOT APPLICABLE"/>
<ItemData ItemOID="IT.ADAE.AGE" Value="38"/>
<ItemData ItemOID="IT.ADAE.SEX" Value="F"/>
<ItemData ItemOID="IT.ADAE.TRTP" Value="TRT B"/>
<ItemData ItemOID="IT.ADAE.TRTEDT" Value="17653"/>
<ItemData ItemOID="IT.ADAE.TRTSDT" Value="17611"/>
<ItemData ItemOID="IT.ADAE.SAFFL" Value="Y"/>
<ItemData ItemOID="IT.ADAE.TRTPN" Value="2"/>
</ItemGroupData>
<ItemGroupData ItemGroupOID="IG.ADAE" data:ItemGroupDataSeq="35">
<ItemData ItemOID="IT.ADAE.STUDYID" Value="SASCSTDEMODATA"/>
<ItemData ItemOID="IT.ADAE.USUBJID" Value="S002P010"/>
<ItemData ItemOID="IT.ADAE.AESEQ" Value="36"/>
<ItemData ItemOID="IT.ADAE.AETERM" Value="HEADACHE"/>
<ItemData ItemOID="IT.ADAE.AEDECOD" Value="Headache"/>
<ItemData ItemOID="IT.ADAE.AEBODSYS" Value="NERVOUS SYSTEM DISORDERS"/>
<ItemData ItemOID="IT.ADAE.AEBDSYCD" Value="10029205"/>
<ItemData ItemOID="IT.ADAE.AELLT" Value="Headache"/>
<ItemData ItemOID="IT.ADAE.AELLTCD" Value="10019211"/>
<ItemData ItemOID="IT.ADAE.AEPTCD" Value="10019211"/>
<ItemData ItemOID="IT.ADAE.AEHLT" Value="Headaches NEC"/>
<ItemData ItemOID="IT.ADAE.AEHLTCD" Value="10019233"/>
<ItemData ItemOID="IT.ADAE.AEHLGT" Value="Headaches"/>
<ItemData ItemOID="IT.ADAE.AEHLGTCD" Value="10019231"/>
<ItemData ItemOID="IT.ADAE.AESOC" Value="Nervous system disorders"/>
<ItemData ItemOID="IT.ADAE.AESOCCD" Value="10029205"/>
<ItemData ItemOID="IT.ADAE.AESTDTC" Value="2008-04-26T18:30"/>
<ItemData ItemOID="IT.ADAE.ASTDTM" Value="1524853800"/>
<ItemData ItemOID="IT.ADAE.AEENDTC" Value="2008-05-01"/>
<ItemData ItemOID="IT.ADAE.AENDTM" Value="1525262400"/>
<ItemData ItemOID="IT.ADAE.AENTMF" Value="H"/>
<ItemData ItemOID="IT.ADAE.ASTDY" Value="38"/>
<ItemData ItemOID="IT.ADAE.AENDY" Value="43"/>
<ItemData ItemOID="IT.ADAE.ADURN" Value="5"/>
<ItemData ItemOID="IT.ADAE.ADURU" Value="DAYS"/>
<ItemData ItemOID="IT.ADAE.AEDUR" Value="P5D"/>
<ItemData ItemOID="IT.ADAE.TRTEMFL" Value="Y"/>
<ItemData ItemOID="IT.ADAE.DOSEAEON" Value="80"/>
<ItemData ItemOID="IT.ADAE.DOSAEONU" Value="MG"/>
<ItemData ItemOID="IT.ADAE.DOSECUM" Value="80"/>
<ItemData ItemOID="IT.ADAE.DOSECUMU" Value="MG"/>
<ItemData ItemOID="IT.ADAE.AESER" Value="N"/>
<ItemData ItemOID="IT.ADAE.AESEV" Value="MODERATE"/>
<ItemData ItemOID="IT.ADAE.AESEVN" Value="2"/>
<ItemData ItemOID="IT.ADAE.ASEV" Value="Moderate"/>
<ItemData ItemOID="IT.ADAE.ASEVN" Value="2"/>
<ItemData ItemOID="IT.ADAE.SEVGR1" Value="Non-severe"/>
<ItemData ItemOID="IT.ADAE.SEVGR1N" Value="1"/>
<ItemData ItemOID="IT.ADAE.AEREL" Value="NOT RELATED"/>
<ItemData ItemOID="IT.ADAE.AERELN" Value="1"/>
<ItemData ItemOID="IT.ADAE.AREL" Value="Not Related"/>
<ItemData ItemOID="IT.ADAE.ARELN" Value="1"/>
<ItemData ItemOID="IT.ADAE.AETOXGR" Value="2"/>
<ItemData ItemOID="IT.ADAE.AETOXGRN" Value="2"/>
<ItemData ItemOID="IT.ADAE.AEACN" Value="NOT APPLICABLE"/>
<ItemData ItemOID="IT.ADAE.AGE" Value="38"/>
<ItemData ItemOID="IT.ADAE.SEX" Value="F"/>
<ItemData ItemOID="IT.ADAE.TRTP" Value="TRT B"/>
<ItemData ItemOID="IT.ADAE.TRTEDT" Value="17653"/>
<ItemData ItemOID="IT.ADAE.TRTSDT" Value="17611"/>
<ItemData ItemOID="IT.ADAE.SAFFL" Value="Y"/>
<ItemData ItemOID="IT.ADAE.TRTPN" Value="2"/>
</ItemGroupData>
<ItemGroupData ItemGroupOID="IG.ADAE" data:ItemGroupDataSeq="36">
<ItemData ItemOID="IT.ADAE.STUDYID" Value="SASCSTDEMODATA"/>
<ItemData ItemOID="IT.ADAE.USUBJID" Value="S002P010"/>
<ItemData ItemOID="IT.ADAE.AESEQ" Value="34"/>
<ItemData ItemOID="IT.ADAE.AETERM" Value="LOOSE STOOLS"/>
<ItemData ItemOID="IT.ADAE.AEDECOD" Value="Diarrhoea"/>
<ItemData ItemOID="IT.ADAE.AEBODSYS" Value="GASTROINTESTINAL DISORDERS"/>
<ItemData ItemOID="IT.ADAE.AEBDSYCD" Value="10017947"/>
<ItemData ItemOID="IT.ADAE.AELLT" Value="Loose stools"/>
<ItemData ItemOID="IT.ADAE.AELLTCD" Value="10024840"/>
<ItemData ItemOID="IT.ADAE.AEPTCD" Value="10012735"/>
<ItemData ItemOID="IT.ADAE.AEHLT" Value="Diarrhoea (excl infective)"/>
<ItemData ItemOID="IT.ADAE.AEHLTCD" Value="10012736"/>
<ItemData ItemOID="IT.ADAE.AEHLGT" Value="Gastrointestinal motility and defaecation conditions"/>
<ItemData ItemOID="IT.ADAE.AEHLGTCD" Value="10017977"/>
<ItemData ItemOID="IT.ADAE.AESOC" Value="Gastrointestinal disorders"/>
<ItemData ItemOID="IT.ADAE.AESOCCD" Value="10017947"/>
<ItemData ItemOID="IT.ADAE.AESTDTC" Value="2008-04-21T05:30"/>
<ItemData ItemOID="IT.ADAE.ASTDTM" Value="1524375000"/>
<ItemData ItemOID="IT.ADAE.AEENDTC" Value="2008-04-29T09:00"/>
<ItemData ItemOID="IT.ADAE.AENDTM" Value="1525078800"/>
<ItemData ItemOID="IT.ADAE.ASTDY" Value="33"/>
<ItemData ItemOID="IT.ADAE.AENDY" Value="41"/>
<ItemData ItemOID="IT.ADAE.ADURN" Value="8"/>
<ItemData ItemOID="IT.ADAE.ADURU" Value="DAYS"/>
<ItemData ItemOID="IT.ADAE.AEDUR" Value="P8DT3H30M"/>
<ItemData ItemOID="IT.ADAE.TRTEMFL" Value="Y"/>
<ItemData ItemOID="IT.ADAE.DOSEAEON" Value="80"/>
<ItemData ItemOID="IT.ADAE.DOSAEONU" Value="MG"/>
<ItemData ItemOID="IT.ADAE.DOSECUM" Value="80"/>
<ItemData ItemOID="IT.ADAE.DOSECUMU" Value="MG"/>
<ItemData ItemOID="IT.ADAE.AESER" Value="N"/>
<ItemData ItemOID="IT.ADAE.ASEV" Value="Other"/>
<ItemData ItemOID="IT.ADAE.AEREL" Value="NOT RELATED"/>
<ItemData ItemOID="IT.ADAE.AERELN" Value="1"/>
<ItemData ItemOID="IT.ADAE.AREL" Value="Not Related"/>
<ItemData ItemOID="IT.ADAE.ARELN" Value="1"/>
<ItemData ItemOID="IT.ADAE.AETOXGRN" Value="1"/>
<ItemData ItemOID="IT.ADAE.AEACN" Value="NOT APPLICABLE"/>
<ItemData ItemOID="IT.ADAE.SMQ01NAM" Value="Gastrointestinal nonspecific symptoms and therapeutic procedures (SMQ)"/>
<ItemData ItemOID="IT.ADAE.SMQ01CD" Value="20000140"/>
<ItemData ItemOID="IT.ADAE.SMQ01SC" Value="NARROW"/>
<ItemData ItemOID="IT.ADAE.SMQ01SCN" Value="2"/>
<ItemData ItemOID="IT.ADAE.AGE" Value="38"/>
<ItemData ItemOID="IT.ADAE.SEX" Value="F"/>
<ItemData ItemOID="IT.ADAE.TRTP" Value="TRT B"/>
<ItemData ItemOID="IT.ADAE.TRTEDT" Value="17653"/>
<ItemData ItemOID="IT.ADAE.TRTSDT" Value="17611"/>
<ItemData ItemOID="IT.ADAE.SAFFL" Value="Y"/>
<ItemData ItemOID="IT.ADAE.TRTPN" Value="2"/>
</ItemGroupData>
<ItemGroupData ItemGroupOID="IG.ADAE" data:ItemGroupDataSeq="37">
<ItemData ItemOID="IT.ADAE.STUDYID" Value="SASCSTDEMODATA"/>
<ItemData ItemOID="IT.ADAE.USUBJID" Value="S002P012"/>
<ItemData ItemOID="IT.ADAE.AESEQ" Value="37"/>
<ItemData ItemOID="IT.ADAE.AETERM" Value="DIARRHEA"/>
<ItemData ItemOID="IT.ADAE.AEDECOD" Value="Diarrhoea"/>
<ItemData ItemOID="IT.ADAE.AEBODSYS" Value="GASTROINTESTINAL DISORDERS"/>
<ItemData ItemOID="IT.ADAE.AEBDSYCD" Value="10017947"/>
<ItemData ItemOID="IT.ADAE.AELLT" Value="Diarrhea"/>
<ItemData ItemOID="IT.ADAE.AELLTCD" Value="10012727"/>
<ItemData ItemOID="IT.ADAE.AEPTCD" Value="10012735"/>
<ItemData ItemOID="IT.ADAE.AEHLT" Value="Diarrhoea (excl infective)"/>
<ItemData ItemOID="IT.ADAE.AEHLTCD" Value="10012736"/>
<ItemData ItemOID="IT.ADAE.AEHLGT" Value="Gastrointestinal motility and defaecation conditions"/>
<ItemData ItemOID="IT.ADAE.AEHLGTCD" Value="10017977"/>
<ItemData ItemOID="IT.ADAE.AESOC" Value="Gastrointestinal disorders"/>
<ItemData ItemOID="IT.ADAE.AESOCCD" Value="10017947"/>
<ItemData ItemOID="IT.ADAE.AESTDTC" Value="2008-03-22T06:00"/>
<ItemData ItemOID="IT.ADAE.ASTDTM" Value="1521784800"/>
<ItemData ItemOID="IT.ADAE.AEENDTC" Value="2008-04-01T22:30"/>
<ItemData ItemOID="IT.ADAE.AENDTM" Value="1522708200"/>
<ItemData ItemOID="IT.ADAE.ASTDY" Value="3"/>
<ItemData ItemOID="IT.ADAE.AENDY" Value="13"/>
<ItemData ItemOID="IT.ADAE.ADURN" Value="10"/>
<ItemData ItemOID="IT.ADAE.ADURU" Value="DAYS"/>
<ItemData ItemOID="IT.ADAE.AEDUR" Value="P10DT16H30M"/>
<ItemData ItemOID="IT.ADAE.TRTEMFL" Value="Y"/>
<ItemData ItemOID="IT.ADAE.AOCCFL" Value="Y"/>
<ItemData ItemOID="IT.ADAE.AOCCIFL" Value="Y"/>
<ItemData ItemOID="IT.ADAE.DOSEAEON" Value="80"/>
<ItemData ItemOID="IT.ADAE.DOSAEONU" Value="MG"/>
<ItemData ItemOID="IT.ADAE.DOSECUM" Value="80"/>
<ItemData ItemOID="IT.ADAE.DOSECUMU" Value="MG"/>
<ItemData ItemOID="IT.ADAE.AESER" Value="N"/>
<ItemData ItemOID="IT.ADAE.AESEV" Value="SEVERE"/>
<ItemData ItemOID="IT.ADAE.AESEVN" Value="3"/>
<ItemData ItemOID="IT.ADAE.ASEV" Value="Severe"/>
<ItemData ItemOID="IT.ADAE.ASEVN" Value="3"/>
<ItemData ItemOID="IT.ADAE.SEVGR1" Value="Severe"/>
<ItemData ItemOID="IT.ADAE.SEVGR1N" Value="2"/>
<ItemData ItemOID="IT.ADAE.AEREL" Value="NOT RELATED"/>
<ItemData ItemOID="IT.ADAE.AERELN" Value="1"/>
<ItemData ItemOID="IT.ADAE.AREL" Value="Not Related"/>
<ItemData ItemOID="IT.ADAE.ARELN" Value="1"/>
<ItemData ItemOID="IT.ADAE.AETOXGR" Value="3"/>
<ItemData ItemOID="IT.ADAE.AETOXGRN" Value="3"/>
<ItemData ItemOID="IT.ADAE.AEACN" Value="NOT APPLICABLE"/>
<ItemData ItemOID="IT.ADAE.SMQ01NAM" Value="Gastrointestinal nonspecific symptoms and therapeutic procedures (SMQ)"/>
<ItemData ItemOID="IT.ADAE.SMQ01CD" Value="20000140"/>
<ItemData ItemOID="IT.ADAE.SMQ01SC" Value="NARROW"/>
<ItemData ItemOID="IT.ADAE.SMQ01SCN" Value="2"/>
<ItemData ItemOID="IT.ADAE.AGE" Value="27"/>
<ItemData ItemOID="IT.ADAE.SEX" Value="F"/>
<ItemData ItemOID="IT.ADAE.TRTP" Value="TRT B"/>
<ItemData ItemOID="IT.ADAE.TRTEDT" Value="17654"/>
<ItemData ItemOID="IT.ADAE.TRTSDT" Value="17612"/>
<ItemData ItemOID="IT.ADAE.SAFFL" Value="Y"/>
<ItemData ItemOID="IT.ADAE.TRTPN" Value="2"/>
</ItemGroupData>
<ItemGroupData ItemGroupOID="IG.ADAE" data:ItemGroupDataSeq="38">
<ItemData ItemOID="IT.ADAE.STUDYID" Value="SASCSTDEMODATA"/>
<ItemData ItemOID="IT.ADAE.USUBJID" Value="S002P012"/>
<ItemData ItemOID="IT.ADAE.AESEQ" Value="38"/>
<ItemData ItemOID="IT.ADAE.AETERM" Value="HEADACHE"/>
<ItemData ItemOID="IT.ADAE.AEDECOD" Value="Headache"/>
<ItemData ItemOID="IT.ADAE.AEBODSYS" Value="NERVOUS SYSTEM DISORDERS"/>
<ItemData ItemOID="IT.ADAE.AEBDSYCD" Value="10029205"/>
<ItemData ItemOID="IT.ADAE.AELLT" Value="Headache"/>
<ItemData ItemOID="IT.ADAE.AELLTCD" Value="10019211"/>
<ItemData ItemOID="IT.ADAE.AEPTCD" Value="10019211"/>
<ItemData ItemOID="IT.ADAE.AEHLT" Value="Headaches NEC"/>
<ItemData ItemOID="IT.ADAE.AEHLTCD" Value="10019233"/>
<ItemData ItemOID="IT.ADAE.AEHLGT" Value="Headaches"/>
<ItemData ItemOID="IT.ADAE.AEHLGTCD" Value="10019231"/>
<ItemData ItemOID="IT.ADAE.AESOC" Value="Nervous system disorders"/>
<ItemData ItemOID="IT.ADAE.AESOCCD" Value="10029205"/>
<ItemData ItemOID="IT.ADAE.AESTDTC" Value="2008-03-22T06:30"/>
<ItemData ItemOID="IT.ADAE.ASTDTM" Value="1521786600"/>
<ItemData ItemOID="IT.ADAE.AEENDTC" Value="2008-03-24T22:30"/>
<ItemData ItemOID="IT.ADAE.AENDTM" Value="1522017000"/>
<ItemData ItemOID="IT.ADAE.ASTDY" Value="3"/>
<ItemData ItemOID="IT.ADAE.AENDY" Value="5"/>
<ItemData ItemOID="IT.ADAE.ADURN" Value="2"/>
<ItemData ItemOID="IT.ADAE.ADURU" Value="DAYS"/>
<ItemData ItemOID="IT.ADAE.AEDUR" Value="P2DT16H"/>
<ItemData ItemOID="IT.ADAE.TRTEMFL" Value="Y"/>
<ItemData ItemOID="IT.ADAE.DOSEAEON" Value="80"/>
<ItemData ItemOID="IT.ADAE.DOSAEONU" Value="MG"/>
<ItemData ItemOID="IT.ADAE.DOSECUM" Value="80"/>
<ItemData ItemOID="IT.ADAE.DOSECUMU" Value="MG"/>
<ItemData ItemOID="IT.ADAE.AESER" Value="N"/>
<ItemData ItemOID="IT.ADAE.AESEV" Value="MILD"/>
<ItemData ItemOID="IT.ADAE.AESEVN" Value="1"/>
<ItemData ItemOID="IT.ADAE.ASEV" Value="Mild"/>
<ItemData ItemOID="IT.ADAE.ASEVN" Value="1"/>
<ItemData ItemOID="IT.ADAE.SEVGR1" Value="Non-severe"/>
<ItemData ItemOID="IT.ADAE.SEVGR1N" Value="1"/>
<ItemData ItemOID="IT.ADAE.AEREL" Value="NOT RELATED"/>
<ItemData ItemOID="IT.ADAE.AERELN" Value="1"/>
<ItemData ItemOID="IT.ADAE.AREL" Value="Not Related"/>
<ItemData ItemOID="IT.ADAE.ARELN" Value="1"/>
<ItemData ItemOID="IT.ADAE.AETOXGR" Value="1"/>
<ItemData ItemOID="IT.ADAE.AETOXGRN" Value="1"/>
<ItemData ItemOID="IT.ADAE.AEACN" Value="NOT APPLICABLE"/>
<ItemData ItemOID="IT.ADAE.AGE" Value="27"/>
<ItemData ItemOID="IT.ADAE.SEX" Value="F"/>
<ItemData ItemOID="IT.ADAE.TRTP" Value="TRT B"/>
<ItemData ItemOID="IT.ADAE.TRTEDT" Value="17654"/>
<ItemData ItemOID="IT.ADAE.TRTSDT" Value="17612"/>
<ItemData ItemOID="IT.ADAE.SAFFL" Value="Y"/>
<ItemData ItemOID="IT.ADAE.TRTPN" Value="2"/>
</ItemGroupData>
<ItemGroupData ItemGroupOID="IG.ADAE" data:ItemGroupDataSeq="39">
<ItemData ItemOID="IT.ADAE.STUDYID" Value="SASCSTDEMODATA"/>
<ItemData ItemOID="IT.ADAE.USUBJID" Value="S002P013"/>
<ItemData ItemOID="IT.ADAE.AESEQ" Value="39"/>
<ItemData ItemOID="IT.ADAE.AETERM" Value="ABDOMINAL CRAMP"/>
<ItemData ItemOID="IT.ADAE.AEDECOD" Value="Abdominal pain"/>
<ItemData ItemOID="IT.ADAE.AEBODSYS" Value="GASTROINTESTINAL DISORDERS"/>
<ItemData ItemOID="IT.ADAE.AEBDSYCD" Value="10017947"/>
<ItemData ItemOID="IT.ADAE.AELLT" Value="Abdominal cramp"/>
<ItemData ItemOID="IT.ADAE.AELLTCD" Value="10000056"/>
<ItemData ItemOID="IT.ADAE.AEPTCD" Value="10000081"/>
<ItemData ItemOID="IT.ADAE.AEHLT" Value="Gastrointestinal and abdominal pains (excl oral and throat)"/>
<ItemData ItemOID="IT.ADAE.AEHLTCD" Value="10017926"/>
<ItemData ItemOID="IT.ADAE.AEHLGT" Value="Gastrointestinal signs and symptoms"/>
<ItemData ItemOID="IT.ADAE.AEHLGTCD" Value="10018012"/>
<ItemData ItemOID="IT.ADAE.AESOC" Value="Gastrointestinal disorders"/>
<ItemData ItemOID="IT.ADAE.AESOCCD" Value="10017947"/>
<ItemData ItemOID="IT.ADAE.AESTDTC" Value="2008-03-25T02:00"/>
<ItemData ItemOID="IT.ADAE.ASTDTM" Value="1522029600"/>
<ItemData ItemOID="IT.ADAE.AEENDTC" Value="2008-04-01T15:30"/>
<ItemData ItemOID="IT.ADAE.AENDTM" Value="1522683000"/>
<ItemData ItemOID="IT.ADAE.ASTDY" Value="2"/>
<ItemData ItemOID="IT.ADAE.AENDY" Value="9"/>
<ItemData ItemOID="IT.ADAE.ADURN" Value="7"/>
<ItemData ItemOID="IT.ADAE.ADURU" Value="DAYS"/>
<ItemData ItemOID="IT.ADAE.AEDUR" Value="P7DT13H30M"/>
<ItemData ItemOID="IT.ADAE.AOCCFL" Value="Y"/>
<ItemData ItemOID="IT.ADAE.DOSEAEON" Value="40"/>
<ItemData ItemOID="IT.ADAE.DOSAEONU" Value="MG"/>
<ItemData ItemOID="IT.ADAE.DOSECUM" Value="120"/>
<ItemData ItemOID="IT.ADAE.DOSECUMU" Value="MG"/>
<ItemData ItemOID="IT.ADAE.AESER" Value="N"/>
<ItemData ItemOID="IT.ADAE.AESEV" Value="MILD"/>
<ItemData ItemOID="IT.ADAE.AESEVN" Value="1"/>
<ItemData ItemOID="IT.ADAE.ASEV" Value="Mild"/>
<ItemData ItemOID="IT.ADAE.ASEVN" Value="1"/>
<ItemData ItemOID="IT.ADAE.SEVGR1" Value="Non-severe"/>
<ItemData ItemOID="IT.ADAE.SEVGR1N" Value="1"/>
<ItemData ItemOID="IT.ADAE.AEREL" Value="NOT RELATED"/>
<ItemData ItemOID="IT.ADAE.AERELN" Value="1"/>
<ItemData ItemOID="IT.ADAE.AREL" Value="Not Related"/>
<ItemData ItemOID="IT.ADAE.ARELN" Value="1"/>
<ItemData ItemOID="IT.ADAE.AETOXGR" Value="1"/>
<ItemData ItemOID="IT.ADAE.AETOXGRN" Value="1"/>
<ItemData ItemOID="IT.ADAE.AEACN" Value="NOT APPLICABLE"/>
<ItemData ItemOID="IT.ADAE.AGE" Value="38"/>
<ItemData ItemOID="IT.ADAE.SEX" Value="F"/>
<ItemData ItemOID="IT.ADAE.TRTP" Value="TRT B"/>
<ItemData ItemOID="IT.ADAE.TRTEDT" Value="17658"/>
<ItemData ItemOID="IT.ADAE.TRTSDT" Value="17615"/>
<ItemData ItemOID="IT.ADAE.SAFFL" Value="Y"/>
<ItemData ItemOID="IT.ADAE.TRTPN" Value="2"/>
</ItemGroupData>
<ItemGroupData ItemGroupOID="IG.ADAE" data:ItemGroupDataSeq="40">
<ItemData ItemOID="IT.ADAE.STUDYID" Value="SASCSTDEMODATA"/>
<ItemData ItemOID="IT.ADAE.USUBJID" Value="S002P013"/>
<ItemData ItemOID="IT.ADAE.AESEQ" Value="40"/>
<ItemData ItemOID="IT.ADAE.AETERM" Value="ABDOMINAL CRAMP"/>
<ItemData ItemOID="IT.ADAE.AEDECOD" Value="Abdominal pain"/>
<ItemData ItemOID="IT.ADAE.AEBODSYS" Value="GASTROINTESTINAL DISORDERS"/>
<ItemData ItemOID="IT.ADAE.AEBDSYCD" Value="10017947"/>
<ItemData ItemOID="IT.ADAE.AELLT" Value="Abdominal cramp"/>
<ItemData ItemOID="IT.ADAE.AELLTCD" Value="10000056"/>
<ItemData ItemOID="IT.ADAE.AEPTCD" Value="10000081"/>
<ItemData ItemOID="IT.ADAE.AEHLT" Value="Gastrointestinal and abdominal pains (excl oral and throat)"/>
<ItemData ItemOID="IT.ADAE.AEHLTCD" Value="10017926"/>
<ItemData ItemOID="IT.ADAE.AEHLGT" Value="Gastrointestinal signs and symptoms"/>
<ItemData ItemOID="IT.ADAE.AEHLGTCD" Value="10018012"/>
<ItemData ItemOID="IT.ADAE.AESOC" Value="Gastrointestinal disorders"/>
<ItemData ItemOID="IT.ADAE.AESOCCD" Value="10017947"/>
<ItemData ItemOID="IT.ADAE.AESTDTC" Value="2008-04-10T23:00"/>
<ItemData ItemOID="IT.ADAE.ASTDTM" Value="1523487600"/>
<ItemData ItemOID="IT.ADAE.AEENDTC" Value="2008-04-19T03:00"/>
<ItemData ItemOID="IT.ADAE.AENDTM" Value="1524193200"/>
<ItemData ItemOID="IT.ADAE.ASTDY" Value="18"/>
<ItemData ItemOID="IT.ADAE.AENDY" Value="27"/>
<ItemData ItemOID="IT.ADAE.ADURN" Value="9"/>
<ItemData ItemOID="IT.ADAE.ADURU" Value="DAYS"/>
<ItemData ItemOID="IT.ADAE.AEDUR" Value="P8DT4H"/>
<ItemData ItemOID="IT.ADAE.TRTEMFL" Value="Y"/>
<ItemData ItemOID="IT.ADAE.DOSEAEON" Value="40"/>
<ItemData ItemOID="IT.ADAE.DOSAEONU" Value="MG"/>
<ItemData ItemOID="IT.ADAE.DOSECUM" Value="120"/>
<ItemData ItemOID="IT.ADAE.DOSECUMU" Value="MG"/>
<ItemData ItemOID="IT.ADAE.AESER" Value="N"/>
<ItemData ItemOID="IT.ADAE.AESEV" Value="MODERATE"/>
<ItemData ItemOID="IT.ADAE.AESEVN" Value="2"/>
<ItemData ItemOID="IT.ADAE.ASEV" Value="Moderate"/>
<ItemData ItemOID="IT.ADAE.ASEVN" Value="2"/>
<ItemData ItemOID="IT.ADAE.SEVGR1" Value="Non-severe"/>
<ItemData ItemOID="IT.ADAE.SEVGR1N" Value="1"/>
<ItemData ItemOID="IT.ADAE.AEREL" Value="NOT RELATED"/>
<ItemData ItemOID="IT.ADAE.AERELN" Value="1"/>
<ItemData ItemOID="IT.ADAE.AREL" Value="Not Related"/>
<ItemData ItemOID="IT.ADAE.ARELN" Value="1"/>
<ItemData ItemOID="IT.ADAE.AETOXGR" Value="2"/>
<ItemData ItemOID="IT.ADAE.AETOXGRN" Value="2"/>
<ItemData ItemOID="IT.ADAE.AEACN" Value="NOT APPLICABLE"/>
<ItemData ItemOID="IT.ADAE.AGE" Value="38"/>
<ItemData ItemOID="IT.ADAE.SEX" Value="F"/>
<ItemData ItemOID="IT.ADAE.TRTP" Value="TRT B"/>
<ItemData ItemOID="IT.ADAE.TRTEDT" Value="17658"/>
<ItemData ItemOID="IT.ADAE.TRTSDT" Value="17615"/>
<ItemData ItemOID="IT.ADAE.SAFFL" Value="Y"/>
<ItemData ItemOID="IT.ADAE.TRTPN" Value="2"/>
</ItemGroupData>
<ItemGroupData ItemGroupOID="IG.ADAE" data:ItemGroupDataSeq="41">
<ItemData ItemOID="IT.ADAE.STUDYID" Value="SASCSTDEMODATA"/>
<ItemData ItemOID="IT.ADAE.USUBJID" Value="S002P013"/>
<ItemData ItemOID="IT.ADAE.AESEQ" Value="41"/>
<ItemData ItemOID="IT.ADAE.AETERM" Value="ABDOMINAL PAIN"/>
<ItemData ItemOID="IT.ADAE.AEDECOD" Value="Abdominal pain"/>
<ItemData ItemOID="IT.ADAE.AEBODSYS" Value="GASTROINTESTINAL DISORDERS"/>
<ItemData ItemOID="IT.ADAE.AEBDSYCD" Value="10017947"/>
<ItemData ItemOID="IT.ADAE.AELLT" Value="Abdominal pain"/>
<ItemData ItemOID="IT.ADAE.AELLTCD" Value="10000081"/>
<ItemData ItemOID="IT.ADAE.AEPTCD" Value="10000081"/>
<ItemData ItemOID="IT.ADAE.AEHLT" Value="Gastrointestinal and abdominal pains (excl oral and throat)"/>
<ItemData ItemOID="IT.ADAE.AEHLTCD" Value="10017926"/>
<ItemData ItemOID="IT.ADAE.AEHLGT" Value="Gastrointestinal signs and symptoms"/>
<ItemData ItemOID="IT.ADAE.AEHLGTCD" Value="10018012"/>
<ItemData ItemOID="IT.ADAE.AESOC" Value="Gastrointestinal disorders"/>
<ItemData ItemOID="IT.ADAE.AESOCCD" Value="10017947"/>
<ItemData ItemOID="IT.ADAE.AESTDTC" Value="2008-04-27T19:30"/>
<ItemData ItemOID="IT.ADAE.ASTDTM" Value="1524943800"/>
<ItemData ItemOID="IT.ADAE.AEENDTC" Value="2008-05-03T07:00"/>
<ItemData ItemOID="IT.ADAE.AENDTM" Value="1525417200"/>
<ItemData ItemOID="IT.ADAE.ASTDY" Value="34"/>
<ItemData ItemOID="IT.ADAE.AENDY" Value="40"/>
<ItemData ItemOID="IT.ADAE.ADURN" Value="6"/>
<ItemData ItemOID="IT.ADAE.ADURU" Value="DAYS"/>
<ItemData ItemOID="IT.ADAE.AEDUR" Value="P5DT11H30M"/>
<ItemData ItemOID="IT.ADAE.TRTEMFL" Value="Y"/>
<ItemData ItemOID="IT.ADAE.DOSEAEON" Value="40"/>
<ItemData ItemOID="IT.ADAE.DOSAEONU" Value="MG"/>
<ItemData ItemOID="IT.ADAE.DOSECUM" Value="120"/>
<ItemData ItemOID="IT.ADAE.DOSECUMU" Value="MG"/>
<ItemData ItemOID="IT.ADAE.AESER" Value="N"/>
<ItemData ItemOID="IT.ADAE.AESEV" Value="MILD"/>
<ItemData ItemOID="IT.ADAE.AESEVN" Value="1"/>
<ItemData ItemOID="IT.ADAE.ASEV" Value="Mild"/>
<ItemData ItemOID="IT.ADAE.ASEVN" Value="1"/>
<ItemData ItemOID="IT.ADAE.SEVGR1" Value="Non-severe"/>
<ItemData ItemOID="IT.ADAE.SEVGR1N" Value="1"/>
<ItemData ItemOID="IT.ADAE.AEREL" Value="NOT RELATED"/>
<ItemData ItemOID="IT.ADAE.AERELN" Value="1"/>
<ItemData ItemOID="IT.ADAE.AREL" Value="Not Related"/>
<ItemData ItemOID="IT.ADAE.ARELN" Value="1"/>
<ItemData ItemOID="IT.ADAE.AETOXGR" Value="1"/>
<ItemData ItemOID="IT.ADAE.AETOXGRN" Value="1"/>
<ItemData ItemOID="IT.ADAE.AEACN" Value="NOT APPLICABLE"/>
<ItemData ItemOID="IT.ADAE.AGE" Value="38"/>
<ItemData ItemOID="IT.ADAE.SEX" Value="F"/>
<ItemData ItemOID="IT.ADAE.TRTP" Value="TRT B"/>
<ItemData ItemOID="IT.ADAE.TRTEDT" Value="17658"/>
<ItemData ItemOID="IT.ADAE.TRTSDT" Value="17615"/>
<ItemData ItemOID="IT.ADAE.SAFFL" Value="Y"/>
<ItemData ItemOID="IT.ADAE.TRTPN" Value="2"/>
</ItemGroupData>
<ItemGroupData ItemGroupOID="IG.ADAE" data:ItemGroupDataSeq="42">
<ItemData ItemOID="IT.ADAE.STUDYID" Value="SASCSTDEMODATA"/>
<ItemData ItemOID="IT.ADAE.USUBJID" Value="S002P013"/>
<ItemData ItemOID="IT.ADAE.AESEQ" Value="43"/>
<ItemData ItemOID="IT.ADAE.AETERM" Value="HEARTBURN"/>
<ItemData ItemOID="IT.ADAE.AEDECOD" Value="Dyspepsia"/>
<ItemData ItemOID="IT.ADAE.AEBODSYS" Value="GASTROINTESTINAL DISORDERS"/>
<ItemData ItemOID="IT.ADAE.AEBDSYCD" Value="10017947"/>
<ItemData ItemOID="IT.ADAE.AELLT" Value="Heartburn"/>
<ItemData ItemOID="IT.ADAE.AELLTCD" Value="10019326"/>
<ItemData ItemOID="IT.ADAE.AEPTCD" Value="10013946"/>
<ItemData ItemOID="IT.ADAE.AEHLT" Value="Dyspeptic signs and symptoms"/>
<ItemData ItemOID="IT.ADAE.AEHLTCD" Value="10013949"/>
<ItemData ItemOID="IT.ADAE.AEHLGT" Value="Gastrointestinal signs and symptoms"/>
<ItemData ItemOID="IT.ADAE.AEHLGTCD" Value="10018012"/>
<ItemData ItemOID="IT.ADAE.AESOC" Value="Gastrointestinal disorders"/>
<ItemData ItemOID="IT.ADAE.AESOCCD" Value="10017947"/>
<ItemData ItemOID="IT.ADAE.AESTDTC" Value="2008-03-29T07:30"/>
<ItemData ItemOID="IT.ADAE.ASTDTM" Value="1522395000"/>
<ItemData ItemOID="IT.ADAE.AEENDTC" Value="2008-04-05"/>
<ItemData ItemOID="IT.ADAE.AENDTM" Value="1523016000"/>
<ItemData ItemOID="IT.ADAE.AENTMF" Value="H"/>
<ItemData ItemOID="IT.ADAE.ASTDY" Value="6"/>
<ItemData ItemOID="IT.ADAE.AENDY" Value="13"/>
<ItemData ItemOID="IT.ADAE.ADURN" Value="7"/>
<ItemData ItemOID="IT.ADAE.ADURU" Value="DAYS"/>
<ItemData ItemOID="IT.ADAE.AEDUR" Value="P7D"/>
<ItemData ItemOID="IT.ADAE.TRTEMFL" Value="Y"/>
<ItemData ItemOID="IT.ADAE.DOSEAEON" Value="40"/>
<ItemData ItemOID="IT.ADAE.DOSAEONU" Value="MG"/>
<ItemData ItemOID="IT.ADAE.DOSECUM" Value="120"/>
<ItemData ItemOID="IT.ADAE.DOSECUMU" Value="MG"/>
<ItemData ItemOID="IT.ADAE.AESER" Value="N"/>
<ItemData ItemOID="IT.ADAE.AESEV" Value="MODERATE"/>
<ItemData ItemOID="IT.ADAE.AESEVN" Value="2"/>
<ItemData ItemOID="IT.ADAE.ASEV" Value="Moderate"/>
<ItemData ItemOID="IT.ADAE.ASEVN" Value="2"/>
<ItemData ItemOID="IT.ADAE.SEVGR1" Value="Non-severe"/>
<ItemData ItemOID="IT.ADAE.SEVGR1N" Value="1"/>
<ItemData ItemOID="IT.ADAE.AREL" Value="Other"/>
<ItemData ItemOID="IT.ADAE.AETOXGR" Value="2"/>
<ItemData ItemOID="IT.ADAE.AETOXGRN" Value="2"/>
<ItemData ItemOID="IT.ADAE.AEACN" Value="NOT APPLICABLE"/>
<ItemData ItemOID="IT.ADAE.AGE" Value="38"/>
<ItemData ItemOID="IT.ADAE.SEX" Value="F"/>
<ItemData ItemOID="IT.ADAE.TRTP" Value="TRT B"/>
<ItemData ItemOID="IT.ADAE.TRTEDT" Value="17658"/>
<ItemData ItemOID="IT.ADAE.TRTSDT" Value="17615"/>
<ItemData ItemOID="IT.ADAE.SAFFL" Value="Y"/>
<ItemData ItemOID="IT.ADAE.TRTPN" Value="2"/>
</ItemGroupData>
<ItemGroupData ItemGroupOID="IG.ADAE" data:ItemGroupDataSeq="43">
<ItemData ItemOID="IT.ADAE.STUDYID" Value="SASCSTDEMODATA"/>
<ItemData ItemOID="IT.ADAE.USUBJID" Value="S002P013"/>
<ItemData ItemOID="IT.ADAE.AESEQ" Value="44"/>
<ItemData ItemOID="IT.ADAE.AETERM" Value="RASH"/>
<ItemData ItemOID="IT.ADAE.AEDECOD" Value="Rash"/>
<ItemData ItemOID="IT.ADAE.AEBODSYS" Value="SKIN AND SUBCUTANEOUS TISSUE DISORDERS"/>
<ItemData ItemOID="IT.ADAE.AEBDSYCD" Value="10040785"/>
<ItemData ItemOID="IT.ADAE.AELLT" Value="Rash"/>
<ItemData ItemOID="IT.ADAE.AELLTCD" Value="10037844"/>
<ItemData ItemOID="IT.ADAE.AEPTCD" Value="10037844"/>
<ItemData ItemOID="IT.ADAE.AEHLT" Value="Rashes, eruptions and exanthems NEC"/>
<ItemData ItemOID="IT.ADAE.AEHLTCD" Value="10052566"/>
<ItemData ItemOID="IT.ADAE.AEHLGT" Value="Epidermal and dermal conditions"/>
<ItemData ItemOID="IT.ADAE.AEHLGTCD" Value="10014982"/>
<ItemData ItemOID="IT.ADAE.AESOC" Value="Skin and subcutaneous tissue disorders"/>
<ItemData ItemOID="IT.ADAE.AESOCCD" Value="10040785"/>
<ItemData ItemOID="IT.ADAE.AESTDTC" Value="2008-04-09T19:00"/>
<ItemData ItemOID="IT.ADAE.ASTDTM" Value="1523386800"/>
<ItemData ItemOID="IT.ADAE.AEENDTC" Value="2008-04-20T16:30"/>
<ItemData ItemOID="IT.ADAE.AENDTM" Value="1524328200"/>
<ItemData ItemOID="IT.ADAE.ASTDY" Value="17"/>
<ItemData ItemOID="IT.ADAE.AENDY" Value="28"/>
<ItemData ItemOID="IT.ADAE.ADURN" Value="11"/>
<ItemData ItemOID="IT.ADAE.ADURU" Value="DAYS"/>
<ItemData ItemOID="IT.ADAE.AEDUR" Value="P10DT21H30M"/>
<ItemData ItemOID="IT.ADAE.TRTEMFL" Value="Y"/>
<ItemData ItemOID="IT.ADAE.DOSEAEON" Value="40"/>
<ItemData ItemOID="IT.ADAE.DOSAEONU" Value="MG"/>
<ItemData ItemOID="IT.ADAE.DOSECUM" Value="120"/>
<ItemData ItemOID="IT.ADAE.DOSECUMU" Value="MG"/>
<ItemData ItemOID="IT.ADAE.AESER" Value="N"/>
<ItemData ItemOID="IT.ADAE.AESEV" Value="MODERATE"/>
<ItemData ItemOID="IT.ADAE.AESEVN" Value="2"/>
<ItemData ItemOID="IT.ADAE.ASEV" Value="Moderate"/>
<ItemData ItemOID="IT.ADAE.ASEVN" Value="2"/>
<ItemData ItemOID="IT.ADAE.SEVGR1" Value="Non-severe"/>
<ItemData ItemOID="IT.ADAE.SEVGR1N" Value="1"/>
<ItemData ItemOID="IT.ADAE.AEREL" Value="LIKELY RELATED"/>
<ItemData ItemOID="IT.ADAE.AERELN" Value="2"/>
<ItemData ItemOID="IT.ADAE.AREL" Value="Likely Related"/>
<ItemData ItemOID="IT.ADAE.ARELN" Value="2"/>
<ItemData ItemOID="IT.ADAE.AETOXGR" Value="2"/>
<ItemData ItemOID="IT.ADAE.AETOXGRN" Value="2"/>
<ItemData ItemOID="IT.ADAE.AEACN" Value="DOSE REDUCED"/>
<ItemData ItemOID="IT.ADAE.CQ01NAM" Value="Pruritic or NOS rashes (CQ)"/>
<ItemData ItemOID="IT.ADAE.AGE" Value="38"/>
<ItemData ItemOID="IT.ADAE.SEX" Value="F"/>
<ItemData ItemOID="IT.ADAE.TRTP" Value="TRT B"/>
<ItemData ItemOID="IT.ADAE.TRTEDT" Value="17658"/>
<ItemData ItemOID="IT.ADAE.TRTSDT" Value="17615"/>
<ItemData ItemOID="IT.ADAE.SAFFL" Value="Y"/>
<ItemData ItemOID="IT.ADAE.TRTPN" Value="2"/>
</ItemGroupData>
<ItemGroupData ItemGroupOID="IG.ADAE" data:ItemGroupDataSeq="44">
<ItemData ItemOID="IT.ADAE.STUDYID" Value="SASCSTDEMODATA"/>
<ItemData ItemOID="IT.ADAE.USUBJID" Value="S002P013"/>
<ItemData ItemOID="IT.ADAE.AESEQ" Value="45"/>
<ItemData ItemOID="IT.ADAE.AETERM" Value="RASH"/>
<ItemData ItemOID="IT.ADAE.AEDECOD" Value="Rash"/>
<ItemData ItemOID="IT.ADAE.AEBODSYS" Value="SKIN AND SUBCUTANEOUS TISSUE DISORDERS"/>
<ItemData ItemOID="IT.ADAE.AEBDSYCD" Value="10040785"/>
<ItemData ItemOID="IT.ADAE.AELLT" Value="Rash"/>
<ItemData ItemOID="IT.ADAE.AELLTCD" Value="10037844"/>
<ItemData ItemOID="IT.ADAE.AEPTCD" Value="10037844"/>
<ItemData ItemOID="IT.ADAE.AEHLT" Value="Rashes, eruptions and exanthems NEC"/>
<ItemData ItemOID="IT.ADAE.AEHLTCD" Value="10052566"/>
<ItemData ItemOID="IT.ADAE.AEHLGT" Value="Epidermal and dermal conditions"/>
<ItemData ItemOID="IT.ADAE.AEHLGTCD" Value="10014982"/>
<ItemData ItemOID="IT.ADAE.AESOC" Value="Skin and subcutaneous tissue disorders"/>
<ItemData ItemOID="IT.ADAE.AESOCCD" Value="10040785"/>
<ItemData ItemOID="IT.ADAE.AESTDTC" Value="2008-04-26"/>
<ItemData ItemOID="IT.ADAE.ASTDTM" Value="1524830400"/>
<ItemData ItemOID="IT.ADAE.ASTTMF" Value="H"/>
<ItemData ItemOID="IT.ADAE.AEENDTC" Value="2008-05-06"/>
<ItemData ItemOID="IT.ADAE.AENDTM" Value="1525694400"/>
<ItemData ItemOID="IT.ADAE.AENTMF" Value="H"/>
<ItemData ItemOID="IT.ADAE.ASTDY" Value="33"/>
<ItemData ItemOID="IT.ADAE.AENDY" Value="43"/>
<ItemData ItemOID="IT.ADAE.ADURN" Value="10"/>
<ItemData ItemOID="IT.ADAE.ADURU" Value="DAYS"/>
<ItemData ItemOID="IT.ADAE.AEDUR" Value="P10D"/>
<ItemData ItemOID="IT.ADAE.TRTEMFL" Value="Y"/>
<ItemData ItemOID="IT.ADAE.AOCCIFL" Value="Y"/>
<ItemData ItemOID="IT.ADAE.DOSEAEON" Value="40"/>
<ItemData ItemOID="IT.ADAE.DOSAEONU" Value="MG"/>
<ItemData ItemOID="IT.ADAE.DOSECUM" Value="120"/>
<ItemData ItemOID="IT.ADAE.DOSECUMU" Value="MG"/>
<ItemData ItemOID="IT.ADAE.AESER" Value="Y"/>
<ItemData ItemOID="IT.ADAE.AESEV" Value="SEVERE"/>
<ItemData ItemOID="IT.ADAE.AESEVN" Value="3"/>
<ItemData ItemOID="IT.ADAE.ASEV" Value="Severe"/>
<ItemData ItemOID="IT.ADAE.ASEVN" Value="3"/>
<ItemData ItemOID="IT.ADAE.SEVGR1" Value="Severe"/>
<ItemData ItemOID="IT.ADAE.SEVGR1N" Value="2"/>
<ItemData ItemOID="IT.ADAE.AEREL" Value="LIKELY RELATED"/>
<ItemData ItemOID="IT.ADAE.AERELN" Value="2"/>
<ItemData ItemOID="IT.ADAE.AREL" Value="Likely Related"/>
<ItemData ItemOID="IT.ADAE.ARELN" Value="2"/>
<ItemData ItemOID="IT.ADAE.AETOXGR" Value="3"/>
<ItemData ItemOID="IT.ADAE.AETOXGRN" Value="3"/>
<ItemData ItemOID="IT.ADAE.AEACN" Value="NOT APPLICABLE"/>
<ItemData ItemOID="IT.ADAE.CQ01NAM" Value="Pruritic or NOS rashes (CQ)"/>
<ItemData ItemOID="IT.ADAE.AGE" Value="38"/>
<ItemData ItemOID="IT.ADAE.SEX" Value="F"/>
<ItemData ItemOID="IT.ADAE.TRTP" Value="TRT B"/>
<ItemData ItemOID="IT.ADAE.TRTEDT" Value="17658"/>
<ItemData ItemOID="IT.ADAE.TRTSDT" Value="17615"/>
<ItemData ItemOID="IT.ADAE.SAFFL" Value="Y"/>
<ItemData ItemOID="IT.ADAE.TRTPN" Value="2"/>
</ItemGroupData>
<ItemGroupData ItemGroupOID="IG.ADAE" data:ItemGroupDataSeq="45">
<ItemData ItemOID="IT.ADAE.STUDYID" Value="SASCSTDEMODATA"/>
<ItemData ItemOID="IT.ADAE.USUBJID" Value="S002P013"/>
<ItemData ItemOID="IT.ADAE.AESEQ" Value="42"/>
<ItemData ItemOID="IT.ADAE.AETERM" Value="URGENT DIARRHEA"/>
<ItemData ItemOID="IT.ADAE.AEDECOD" Value="Diarrhoea"/>
<ItemData ItemOID="IT.ADAE.AEBODSYS" Value="GASTROINTESTINAL DISORDERS"/>
<ItemData ItemOID="IT.ADAE.AEBDSYCD" Value="10017947"/>
<ItemData ItemOID="IT.ADAE.AELLT" Value="Urgent diarrhea"/>
<ItemData ItemOID="IT.ADAE.AELLTCD" Value="10055420"/>
<ItemData ItemOID="IT.ADAE.AEPTCD" Value="10012735"/>
<ItemData ItemOID="IT.ADAE.AEHLT" Value="Diarrhoea (excl infective)"/>
<ItemData ItemOID="IT.ADAE.AEHLTCD" Value="10012736"/>
<ItemData ItemOID="IT.ADAE.AEHLGT" Value="Gastrointestinal motility and defaecation conditions"/>
<ItemData ItemOID="IT.ADAE.AEHLGTCD" Value="10017977"/>
<ItemData ItemOID="IT.ADAE.AESOC" Value="Gastrointestinal disorders"/>
<ItemData ItemOID="IT.ADAE.AESOCCD" Value="10017947"/>
<ItemData ItemOID="IT.ADAE.AESTDTC" Value="2008-04-12T13:00"/>
<ItemData ItemOID="IT.ADAE.ASTDTM" Value="1523624400"/>
<ItemData ItemOID="IT.ADAE.AEENDTC" Value="2008-04-20T11:30"/>
<ItemData ItemOID="IT.ADAE.AENDTM" Value="1524310200"/>
<ItemData ItemOID="IT.ADAE.ASTDY" Value="20"/>
<ItemData ItemOID="IT.ADAE.AENDY" Value="28"/>
<ItemData ItemOID="IT.ADAE.ADURN" Value="8"/>
<ItemData ItemOID="IT.ADAE.ADURU" Value="DAYS"/>
<ItemData ItemOID="IT.ADAE.AEDUR" Value="P7DT22H30M"/>
<ItemData ItemOID="IT.ADAE.TRTEMFL" Value="Y"/>
<ItemData ItemOID="IT.ADAE.DOSEAEON" Value="40"/>
<ItemData ItemOID="IT.ADAE.DOSAEONU" Value="MG"/>
<ItemData ItemOID="IT.ADAE.DOSECUM" Value="120"/>
<ItemData ItemOID="IT.ADAE.DOSECUMU" Value="MG"/>
<ItemData ItemOID="IT.ADAE.AESER" Value="N"/>
<ItemData ItemOID="IT.ADAE.AESEV" Value="MILD"/>
<ItemData ItemOID="IT.ADAE.AESEVN" Value="1"/>
<ItemData ItemOID="IT.ADAE.ASEV" Value="Mild"/>
<ItemData ItemOID="IT.ADAE.ASEVN" Value="1"/>
<ItemData ItemOID="IT.ADAE.SEVGR1" Value="Non-severe"/>
<ItemData ItemOID="IT.ADAE.SEVGR1N" Value="1"/>
<ItemData ItemOID="IT.ADAE.AEREL" Value="NOT RELATED"/>
<ItemData ItemOID="IT.ADAE.AERELN" Value="1"/>
<ItemData ItemOID="IT.ADAE.AREL" Value="Not Related"/>
<ItemData ItemOID="IT.ADAE.ARELN" Value="1"/>
<ItemData ItemOID="IT.ADAE.AETOXGR" Value="1"/>
<ItemData ItemOID="IT.ADAE.AETOXGRN" Value="1"/>
<ItemData ItemOID="IT.ADAE.AEACN" Value="NOT APPLICABLE"/>
<ItemData ItemOID="IT.ADAE.SMQ01NAM" Value="Gastrointestinal nonspecific symptoms and therapeutic procedures (SMQ)"/>
<ItemData ItemOID="IT.ADAE.SMQ01CD" Value="20000140"/>
<ItemData ItemOID="IT.ADAE.SMQ01SC" Value="NARROW"/>
<ItemData ItemOID="IT.ADAE.SMQ01SCN" Value="2"/>
<ItemData ItemOID="IT.ADAE.AGE" Value="38"/>
<ItemData ItemOID="IT.ADAE.SEX" Value="F"/>
<ItemData ItemOID="IT.ADAE.TRTP" Value="TRT B"/>
<ItemData ItemOID="IT.ADAE.TRTEDT" Value="17658"/>
<ItemData ItemOID="IT.ADAE.TRTSDT" Value="17615"/>
<ItemData ItemOID="IT.ADAE.SAFFL" Value="Y"/>
<ItemData ItemOID="IT.ADAE.TRTPN" Value="2"/>
</ItemGroupData>
<ItemGroupData ItemGroupOID="IG.ADAE" data:ItemGroupDataSeq="46">
<ItemData ItemOID="IT.ADAE.STUDYID" Value="SASCSTDEMODATA"/>
<ItemData ItemOID="IT.ADAE.USUBJID" Value="S002P015"/>
<ItemData ItemOID="IT.ADAE.AESEQ" Value="46"/>
<ItemData ItemOID="IT.ADAE.AETERM" Value="HEADACHE NOS"/>
<ItemData ItemOID="IT.ADAE.AEDECOD" Value="Headache"/>
<ItemData ItemOID="IT.ADAE.AEBODSYS" Value="NERVOUS SYSTEM DISORDERS"/>
<ItemData ItemOID="IT.ADAE.AEBDSYCD" Value="10029205"/>
<ItemData ItemOID="IT.ADAE.AELLT" Value="Headache NOS"/>
<ItemData ItemOID="IT.ADAE.AELLTCD" Value="10019218"/>
<ItemData ItemOID="IT.ADAE.AEPTCD" Value="10019211"/>
<ItemData ItemOID="IT.ADAE.AEHLT" Value="Headaches NEC"/>
<ItemData ItemOID="IT.ADAE.AEHLTCD" Value="10019233"/>
<ItemData ItemOID="IT.ADAE.AEHLGT" Value="Headaches"/>
<ItemData ItemOID="IT.ADAE.AEHLGTCD" Value="10019231"/>
<ItemData ItemOID="IT.ADAE.AESOC" Value="Nervous system disorders"/>
<ItemData ItemOID="IT.ADAE.AESOCCD" Value="10029205"/>
<ItemData ItemOID="IT.ADAE.AESTDTC" Value="2008-04-14T06:30"/>
<ItemData ItemOID="IT.ADAE.ASTDTM" Value="1523773800"/>
<ItemData ItemOID="IT.ADAE.AEENDTC" Value="2008-04-21"/>
<ItemData ItemOID="IT.ADAE.AENDTM" Value="1524398400"/>
<ItemData ItemOID="IT.ADAE.AENTMF" Value="H"/>
<ItemData ItemOID="IT.ADAE.ASTDY" Value="21"/>
<ItemData ItemOID="IT.ADAE.AENDY" Value="28"/>
<ItemData ItemOID="IT.ADAE.ADURN" Value="7"/>
<ItemData ItemOID="IT.ADAE.ADURU" Value="DAYS"/>
<ItemData ItemOID="IT.ADAE.AEDUR" Value="P7D"/>
<ItemData ItemOID="IT.ADAE.AOCCFL" Value="Y"/>
<ItemData ItemOID="IT.ADAE.AOCCIFL" Value="Y"/>
<ItemData ItemOID="IT.ADAE.DOSEAEON" Value="120"/>
<ItemData ItemOID="IT.ADAE.DOSAEONU" Value="MG"/>
<ItemData ItemOID="IT.ADAE.DOSECUM" Value="120"/>
<ItemData ItemOID="IT.ADAE.DOSECUMU" Value="MG"/>
<ItemData ItemOID="IT.ADAE.AESER" Value="N"/>
<ItemData ItemOID="IT.ADAE.AESEV" Value="SEVERE"/>
<ItemData ItemOID="IT.ADAE.AESEVN" Value="3"/>
<ItemData ItemOID="IT.ADAE.ASEV" Value="Severe"/>
<ItemData ItemOID="IT.ADAE.ASEVN" Value="3"/>
<ItemData ItemOID="IT.ADAE.SEVGR1" Value="Severe"/>
<ItemData ItemOID="IT.ADAE.SEVGR1N" Value="2"/>
<ItemData ItemOID="IT.ADAE.AEREL" Value="NOT RELATED"/>
<ItemData ItemOID="IT.ADAE.AERELN" Value="1"/>
<ItemData ItemOID="IT.ADAE.AREL" Value="Not Related"/>
<ItemData ItemOID="IT.ADAE.ARELN" Value="1"/>
<ItemData ItemOID="IT.ADAE.AETOXGR" Value="3"/>
<ItemData ItemOID="IT.ADAE.AETOXGRN" Value="3"/>
<ItemData ItemOID="IT.ADAE.AEACN" Value="NOT APPLICABLE"/>
<ItemData ItemOID="IT.ADAE.AGE" Value="37"/>
<ItemData ItemOID="IT.ADAE.SEX" Value="F"/>
<ItemData ItemOID="IT.ADAE.TRTP" Value="TRT C"/>
<ItemData ItemOID="IT.ADAE.TRTEDT" Value="17644"/>
<ItemData ItemOID="IT.ADAE.TRTSDT" Value="17616"/>
<ItemData ItemOID="IT.ADAE.SAFFL" Value="Y"/>
<ItemData ItemOID="IT.ADAE.TRTPN" Value="3"/>
</ItemGroupData>
<ItemGroupData ItemGroupOID="IG.ADAE" data:ItemGroupDataSeq="47">
<ItemData ItemOID="IT.ADAE.STUDYID" Value="SASCSTDEMODATA"/>
<ItemData ItemOID="IT.ADAE.USUBJID" Value="S002P016"/>
<ItemData ItemOID="IT.ADAE.AESEQ" Value="48"/>
<ItemData ItemOID="IT.ADAE.AETERM" Value="ACID REFLUX (OESOPHAGEAL)"/>
<ItemData ItemOID="IT.ADAE.AEDECOD" Value="Gastrooesophageal reflux disease"/>
<ItemData ItemOID="IT.ADAE.AEBODSYS" Value="GASTROINTESTINAL DISORDERS"/>
<ItemData ItemOID="IT.ADAE.AEBDSYCD" Value="10017947"/>
<ItemData ItemOID="IT.ADAE.AELLT" Value="Acid reflux (oesophageal)"/>
<ItemData ItemOID="IT.ADAE.AELLTCD" Value="10000479"/>
<ItemData ItemOID="IT.ADAE.AEPTCD" Value="10017885"/>
<ItemData ItemOID="IT.ADAE.AEHLT" Value="Gastrointestinal atonic and hypomotility disorders NEC"/>
<ItemData ItemOID="IT.ADAE.AEHLTCD" Value="10017933"/>
<ItemData ItemOID="IT.ADAE.AEHLGT" Value="Gastrointestinal motility and defaecation conditions"/>
<ItemData ItemOID="IT.ADAE.AEHLGTCD" Value="10017977"/>
<ItemData ItemOID="IT.ADAE.AESOC" Value="Gastrointestinal disorders"/>
<ItemData ItemOID="IT.ADAE.AESOCCD" Value="10017947"/>
<ItemData ItemOID="IT.ADAE.AESTDTC" Value="2008-04-24T04:00"/>
<ItemData ItemOID="IT.ADAE.ASTDTM" Value="1524628800"/>
<ItemData ItemOID="IT.ADAE.AEENDTC" Value="2008-05-05"/>
<ItemData ItemOID="IT.ADAE.AENDTM" Value="1525608000"/>
<ItemData ItemOID="IT.ADAE.AENTMF" Value="H"/>
<ItemData ItemOID="IT.ADAE.ASTDY" Value="30"/>
<ItemData ItemOID="IT.ADAE.AENDY" Value="41"/>
<ItemData ItemOID="IT.ADAE.ADURN" Value="11"/>
<ItemData ItemOID="IT.ADAE.ADURU" Value="DAYS"/>
<ItemData ItemOID="IT.ADAE.AEDUR" Value="P11D"/>
<ItemData ItemOID="IT.ADAE.TRTEMFL" Value="Y"/>
<ItemData ItemOID="IT.ADAE.AOCCIFL" Value="Y"/>
<ItemData ItemOID="IT.ADAE.DOSEAEON" Value="80"/>
<ItemData ItemOID="IT.ADAE.DOSAEONU" Value="MG"/>
<ItemData ItemOID="IT.ADAE.DOSECUM" Value="80"/>
<ItemData ItemOID="IT.ADAE.DOSECUMU" Value="MG"/>
<ItemData ItemOID="IT.ADAE.AESER" Value="N"/>
<ItemData ItemOID="IT.ADAE.AESEV" Value="SEVERE"/>
<ItemData ItemOID="IT.ADAE.AESEVN" Value="3"/>
<ItemData ItemOID="IT.ADAE.ASEV" Value="Severe"/>
<ItemData ItemOID="IT.ADAE.ASEVN" Value="3"/>
<ItemData ItemOID="IT.ADAE.SEVGR1" Value="Severe"/>
<ItemData ItemOID="IT.ADAE.SEVGR1N" Value="2"/>
<ItemData ItemOID="IT.ADAE.AEREL" Value="NOT RELATED"/>
<ItemData ItemOID="IT.ADAE.AERELN" Value="1"/>
<ItemData ItemOID="IT.ADAE.AREL" Value="Not Related"/>
<ItemData ItemOID="IT.ADAE.ARELN" Value="1"/>
<ItemData ItemOID="IT.ADAE.AETOXGR" Value="3"/>
<ItemData ItemOID="IT.ADAE.AETOXGRN" Value="3"/>
<ItemData ItemOID="IT.ADAE.AEACN" Value="NOT APPLICABLE"/>
<ItemData ItemOID="IT.ADAE.AGE" Value="26"/>
<ItemData ItemOID="IT.ADAE.SEX" Value="F"/>
<ItemData ItemOID="IT.ADAE.TRTP" Value="TRT B"/>
<ItemData ItemOID="IT.ADAE.TRTEDT" Value="17659"/>
<ItemData ItemOID="IT.ADAE.TRTSDT" Value="17618"/>
<ItemData ItemOID="IT.ADAE.SAFFL" Value="Y"/>
<ItemData ItemOID="IT.ADAE.TRTPN" Value="2"/>
</ItemGroupData>
<ItemGroupData ItemGroupOID="IG.ADAE" data:ItemGroupDataSeq="48">
<ItemData ItemOID="IT.ADAE.STUDYID" Value="SASCSTDEMODATA"/>
<ItemData ItemOID="IT.ADAE.USUBJID" Value="S002P016"/>
<ItemData ItemOID="IT.ADAE.AESEQ" Value="47"/>
<ItemData ItemOID="IT.ADAE.AETERM" Value="DIARRHEA"/>
<ItemData ItemOID="IT.ADAE.AEDECOD" Value="Diarrhoea"/>
<ItemData ItemOID="IT.ADAE.AEBODSYS" Value="GASTROINTESTINAL DISORDERS"/>
<ItemData ItemOID="IT.ADAE.AEBDSYCD" Value="10017947"/>
<ItemData ItemOID="IT.ADAE.AELLT" Value="Diarrhea"/>
<ItemData ItemOID="IT.ADAE.AELLTCD" Value="10012727"/>
<ItemData ItemOID="IT.ADAE.AEPTCD" Value="10012735"/>
<ItemData ItemOID="IT.ADAE.AEHLT" Value="Diarrhoea (excl infective)"/>
<ItemData ItemOID="IT.ADAE.AEHLTCD" Value="10012736"/>
<ItemData ItemOID="IT.ADAE.AEHLGT" Value="Gastrointestinal motility and defaecation conditions"/>
<ItemData ItemOID="IT.ADAE.AEHLGTCD" Value="10017977"/>
<ItemData ItemOID="IT.ADAE.AESOC" Value="Gastrointestinal disorders"/>
<ItemData ItemOID="IT.ADAE.AESOCCD" Value="10017947"/>
<ItemData ItemOID="IT.ADAE.AESTDTC" Value="2008-03-29T10:30"/>
<ItemData ItemOID="IT.ADAE.ASTDTM" Value="1522405800"/>
<ItemData ItemOID="IT.ADAE.AEENDTC" Value="2008-04-03"/>
<ItemData ItemOID="IT.ADAE.AENDTM" Value="1522843200"/>
<ItemData ItemOID="IT.ADAE.AENTMF" Value="H"/>
<ItemData ItemOID="IT.ADAE.ASTDY" Value="4"/>
<ItemData ItemOID="IT.ADAE.AENDY" Value="9"/>
<ItemData ItemOID="IT.ADAE.ADURN" Value="5"/>
<ItemData ItemOID="IT.ADAE.ADURU" Value="DAYS"/>
<ItemData ItemOID="IT.ADAE.AEDUR" Value="P5D"/>
<ItemData ItemOID="IT.ADAE.AOCCFL" Value="Y"/>
<ItemData ItemOID="IT.ADAE.DOSEAEON" Value="80"/>
<ItemData ItemOID="IT.ADAE.DOSAEONU" Value="MG"/>
<ItemData ItemOID="IT.ADAE.DOSECUM" Value="80"/>
<ItemData ItemOID="IT.ADAE.DOSECUMU" Value="MG"/>
<ItemData ItemOID="IT.ADAE.AESER" Value="N"/>
<ItemData ItemOID="IT.ADAE.AESEV" Value="MILD"/>
<ItemData ItemOID="IT.ADAE.AESEVN" Value="1"/>
<ItemData ItemOID="IT.ADAE.ASEV" Value="Mild"/>
<ItemData ItemOID="IT.ADAE.ASEVN" Value="1"/>
<ItemData ItemOID="IT.ADAE.SEVGR1" Value="Non-severe"/>
<ItemData ItemOID="IT.ADAE.SEVGR1N" Value="1"/>
<ItemData ItemOID="IT.ADAE.AEREL" Value="NOT RELATED"/>
<ItemData ItemOID="IT.ADAE.AERELN" Value="1"/>
<ItemData ItemOID="IT.ADAE.AREL" Value="Not Related"/>
<ItemData ItemOID="IT.ADAE.ARELN" Value="1"/>
<ItemData ItemOID="IT.ADAE.AETOXGR" Value="1"/>
<ItemData ItemOID="IT.ADAE.AETOXGRN" Value="1"/>
<ItemData ItemOID="IT.ADAE.AEACN" Value="NOT APPLICABLE"/>
<ItemData ItemOID="IT.ADAE.SMQ01NAM" Value="Gastrointestinal nonspecific symptoms and therapeutic procedures (SMQ)"/>
<ItemData ItemOID="IT.ADAE.SMQ01CD" Value="20000140"/>
<ItemData ItemOID="IT.ADAE.SMQ01SC" Value="NARROW"/>
<ItemData ItemOID="IT.ADAE.SMQ01SCN" Value="2"/>
<ItemData ItemOID="IT.ADAE.AGE" Value="26"/>
<ItemData ItemOID="IT.ADAE.SEX" Value="F"/>
<ItemData ItemOID="IT.ADAE.TRTP" Value="TRT B"/>
<ItemData ItemOID="IT.ADAE.TRTEDT" Value="17659"/>
<ItemData ItemOID="IT.ADAE.TRTSDT" Value="17618"/>
<ItemData ItemOID="IT.ADAE.SAFFL" Value="Y"/>
<ItemData ItemOID="IT.ADAE.TRTPN" Value="2"/>
</ItemGroupData>
<ItemGroupData ItemGroupOID="IG.ADAE" data:ItemGroupDataSeq="49">
<ItemData ItemOID="IT.ADAE.STUDYID" Value="SASCSTDEMODATA"/>
<ItemData ItemOID="IT.ADAE.USUBJID" Value="S002P017"/>
<ItemData ItemOID="IT.ADAE.AESEQ" Value="49"/>
<ItemData ItemOID="IT.ADAE.AETERM" Value="HEADACHE NOS"/>
<ItemData ItemOID="IT.ADAE.AEDECOD" Value="Headache"/>
<ItemData ItemOID="IT.ADAE.AEBODSYS" Value="NERVOUS SYSTEM DISORDERS"/>
<ItemData ItemOID="IT.ADAE.AEBDSYCD" Value="10029205"/>
<ItemData ItemOID="IT.ADAE.AELLT" Value="Headache NOS"/>
<ItemData ItemOID="IT.ADAE.AELLTCD" Value="10019218"/>
<ItemData ItemOID="IT.ADAE.AEPTCD" Value="10019211"/>
<ItemData ItemOID="IT.ADAE.AEHLT" Value="Headaches NEC"/>
<ItemData ItemOID="IT.ADAE.AEHLTCD" Value="10019233"/>
<ItemData ItemOID="IT.ADAE.AEHLGT" Value="Headaches"/>
<ItemData ItemOID="IT.ADAE.AEHLGTCD" Value="10019231"/>
<ItemData ItemOID="IT.ADAE.AESOC" Value="Nervous system disorders"/>
<ItemData ItemOID="IT.ADAE.AESOCCD" Value="10029205"/>
<ItemData ItemOID="IT.ADAE.AESTDTC" Value="2008-03-29T08:00"/>
<ItemData ItemOID="IT.ADAE.ASTDTM" Value="1522396800"/>
<ItemData ItemOID="IT.ADAE.AEENDTC" Value="2008-04-07"/>
<ItemData ItemOID="IT.ADAE.AENDTM" Value="1523188800"/>
<ItemData ItemOID="IT.ADAE.AENTMF" Value="H"/>
<ItemData ItemOID="IT.ADAE.ASTDY" Value="4"/>
<ItemData ItemOID="IT.ADAE.AENDY" Value="13"/>
<ItemData ItemOID="IT.ADAE.ADURN" Value="9"/>
<ItemData ItemOID="IT.ADAE.ADURU" Value="DAYS"/>
<ItemData ItemOID="IT.ADAE.AEDUR" Value="P9D"/>
<ItemData ItemOID="IT.ADAE.AOCCFL" Value="Y"/>
<ItemData ItemOID="IT.ADAE.AOCCIFL" Value="Y"/>
<ItemData ItemOID="IT.ADAE.DOSEAEON" Value="80"/>
<ItemData ItemOID="IT.ADAE.DOSAEONU" Value="MG"/>
<ItemData ItemOID="IT.ADAE.DOSECUM" Value="80"/>
<ItemData ItemOID="IT.ADAE.DOSECUMU" Value="MG"/>
<ItemData ItemOID="IT.ADAE.AESER" Value="N"/>
<ItemData ItemOID="IT.ADAE.AESEV" Value="MILD"/>
<ItemData ItemOID="IT.ADAE.AESEVN" Value="1"/>
<ItemData ItemOID="IT.ADAE.ASEV" Value="Mild"/>
<ItemData ItemOID="IT.ADAE.ASEVN" Value="1"/>
<ItemData ItemOID="IT.ADAE.SEVGR1" Value="Non-severe"/>
<ItemData ItemOID="IT.ADAE.SEVGR1N" Value="1"/>
<ItemData ItemOID="IT.ADAE.AEREL" Value="NOT RELATED"/>
<ItemData ItemOID="IT.ADAE.AERELN" Value="1"/>
<ItemData ItemOID="IT.ADAE.AREL" Value="Not Related"/>
<ItemData ItemOID="IT.ADAE.ARELN" Value="1"/>
<ItemData ItemOID="IT.ADAE.AETOXGR" Value="1"/>
<ItemData ItemOID="IT.ADAE.AETOXGRN" Value="1"/>
<ItemData ItemOID="IT.ADAE.AEACN" Value="NOT APPLICABLE"/>
<ItemData ItemOID="IT.ADAE.AGE" Value="41"/>
<ItemData ItemOID="IT.ADAE.SEX" Value="F"/>
<ItemData ItemOID="IT.ADAE.TRTP" Value="TRT B"/>
<ItemData ItemOID="IT.ADAE.TRTEDT" Value="17631"/>
<ItemData ItemOID="IT.ADAE.TRTSDT" Value="17618"/>
<ItemData ItemOID="IT.ADAE.SAFFL" Value="Y"/>
<ItemData ItemOID="IT.ADAE.TRTPN" Value="2"/>
</ItemGroupData>
<ItemGroupData ItemGroupOID="IG.ADAE" data:ItemGroupDataSeq="50">
<ItemData ItemOID="IT.ADAE.STUDYID" Value="SASCSTDEMODATA"/>
<ItemData ItemOID="IT.ADAE.USUBJID" Value="S002P018"/>
<ItemData ItemOID="IT.ADAE.AESEQ" Value="50"/>
<ItemData ItemOID="IT.ADAE.AETERM" Value="ABDOMINAL DISCOMFORT"/>
<ItemData ItemOID="IT.ADAE.AEDECOD" Value="Abdominal discomfort"/>
<ItemData ItemOID="IT.ADAE.AEBODSYS" Value="GASTROINTESTINAL DISORDERS"/>
<ItemData ItemOID="IT.ADAE.AEBDSYCD" Value="10017947"/>
<ItemData ItemOID="IT.ADAE.AELLT" Value="Abdominal discomfort"/>
<ItemData ItemOID="IT.ADAE.AELLTCD" Value="10000059"/>
<ItemData ItemOID="IT.ADAE.AEPTCD" Value="10000059"/>
<ItemData ItemOID="IT.ADAE.AEHLT" Value="Gastrointestinal signs and symptoms NEC"/>
<ItemData ItemOID="IT.ADAE.AEHLTCD" Value="10027678"/>
<ItemData ItemOID="IT.ADAE.AEHLGT" Value="Gastrointestinal signs and symptoms"/>
<ItemData ItemOID="IT.ADAE.AEHLGTCD" Value="10018012"/>
<ItemData ItemOID="IT.ADAE.AESOC" Value="Gastrointestinal disorders"/>
<ItemData ItemOID="IT.ADAE.AESOCCD" Value="10017947"/>
<ItemData ItemOID="IT.ADAE.AESTDTC" Value="2008-04-27T14:30"/>
<ItemData ItemOID="IT.ADAE.ASTDTM" Value="1524925800"/>
<ItemData ItemOID="IT.ADAE.AEENDTC" Value="2008-05-07T13:00"/>
<ItemData ItemOID="IT.ADAE.AENDTM" Value="1525784400"/>
<ItemData ItemOID="IT.ADAE.ASTDY" Value="32"/>
<ItemData ItemOID="IT.ADAE.AENDY" Value="42"/>
<ItemData ItemOID="IT.ADAE.ADURN" Value="10"/>
<ItemData ItemOID="IT.ADAE.ADURU" Value="DAYS"/>
<ItemData ItemOID="IT.ADAE.AEDUR" Value="P9DT22H30M"/>
<ItemData ItemOID="IT.ADAE.AOCCIFL" Value="Y"/>
<ItemData ItemOID="IT.ADAE.DOSEAEON" Value="20"/>
<ItemData ItemOID="IT.ADAE.DOSAEONU" Value="MG"/>
<ItemData ItemOID="IT.ADAE.DOSECUM" Value="60"/>
<ItemData ItemOID="IT.ADAE.DOSECUMU" Value="MG"/>
<ItemData ItemOID="IT.ADAE.AESER" Value="N"/>
<ItemData ItemOID="IT.ADAE.AESEV" Value="SEVERE"/>
<ItemData ItemOID="IT.ADAE.AESEVN" Value="3"/>
<ItemData ItemOID="IT.ADAE.ASEV" Value="Severe"/>
<ItemData ItemOID="IT.ADAE.ASEVN" Value="3"/>
<ItemData ItemOID="IT.ADAE.SEVGR1" Value="Severe"/>
<ItemData ItemOID="IT.ADAE.SEVGR1N" Value="2"/>
<ItemData ItemOID="IT.ADAE.AEREL" Value="NOT RELATED"/>
<ItemData ItemOID="IT.ADAE.AERELN" Value="1"/>
<ItemData ItemOID="IT.ADAE.AREL" Value="Not Related"/>
<ItemData ItemOID="IT.ADAE.ARELN" Value="1"/>
<ItemData ItemOID="IT.ADAE.AETOXGR" Value="3"/>
<ItemData ItemOID="IT.ADAE.AETOXGRN" Value="3"/>
<ItemData ItemOID="IT.ADAE.AEACN" Value="NOT APPLICABLE"/>
<ItemData ItemOID="IT.ADAE.AGE" Value="21"/>
<ItemData ItemOID="IT.ADAE.SEX" Value="F"/>
<ItemData ItemOID="IT.ADAE.TRTP" Value="TRT A"/>
<ItemData ItemOID="IT.ADAE.TRTEDT" Value="17660"/>
<ItemData ItemOID="IT.ADAE.TRTSDT" Value="17618"/>
<ItemData ItemOID="IT.ADAE.SAFFL" Value="Y"/>
<ItemData ItemOID="IT.ADAE.TRTPN" Value="1"/>
</ItemGroupData>
<ItemGroupData ItemGroupOID="IG.ADAE" data:ItemGroupDataSeq="51">
<ItemData ItemOID="IT.ADAE.STUDYID" Value="SASCSTDEMODATA"/>
<ItemData ItemOID="IT.ADAE.USUBJID" Value="S002P018"/>
<ItemData ItemOID="IT.ADAE.AESEQ" Value="51"/>
<ItemData ItemOID="IT.ADAE.AETERM" Value="HEADACHE"/>
<ItemData ItemOID="IT.ADAE.AEDECOD" Value="Headache"/>
<ItemData ItemOID="IT.ADAE.AEBODSYS" Value="NERVOUS SYSTEM DISORDERS"/>
<ItemData ItemOID="IT.ADAE.AEBDSYCD" Value="10029205"/>
<ItemData ItemOID="IT.ADAE.AELLT" Value="Headache"/>
<ItemData ItemOID="IT.ADAE.AELLTCD" Value="10019211"/>
<ItemData ItemOID="IT.ADAE.AEPTCD" Value="10019211"/>
<ItemData ItemOID="IT.ADAE.AEHLT" Value="Headaches NEC"/>
<ItemData ItemOID="IT.ADAE.AEHLTCD" Value="10019233"/>
<ItemData ItemOID="IT.ADAE.AEHLGT" Value="Headaches"/>
<ItemData ItemOID="IT.ADAE.AEHLGTCD" Value="10019231"/>
<ItemData ItemOID="IT.ADAE.AESOC" Value="Nervous system disorders"/>
<ItemData ItemOID="IT.ADAE.AESOCCD" Value="10029205"/>
<ItemData ItemOID="IT.ADAE.AESTDTC" Value="2008-04-29T07:30"/>
<ItemData ItemOID="IT.ADAE.ASTDTM" Value="1525073400"/>
<ItemData ItemOID="IT.ADAE.AEENDTC" Value="2008-05-07T19:00"/>
<ItemData ItemOID="IT.ADAE.AENDTM" Value="1525806000"/>
<ItemData ItemOID="IT.ADAE.ASTDY" Value="34"/>
<ItemData ItemOID="IT.ADAE.AENDY" Value="42"/>
<ItemData ItemOID="IT.ADAE.ADURN" Value="8"/>
<ItemData ItemOID="IT.ADAE.ADURU" Value="DAYS"/>
<ItemData ItemOID="IT.ADAE.AEDUR" Value="P8DT11H30M"/>
<ItemData ItemOID="IT.ADAE.TRTEMFL" Value="Y"/>
<ItemData ItemOID="IT.ADAE.DOSEAEON" Value="20"/>
<ItemData ItemOID="IT.ADAE.DOSAEONU" Value="MG"/>
<ItemData ItemOID="IT.ADAE.DOSECUM" Value="60"/>
<ItemData ItemOID="IT.ADAE.DOSECUMU" Value="MG"/>
<ItemData ItemOID="IT.ADAE.AESER" Value="N"/>
<ItemData ItemOID="IT.ADAE.AESEV" Value="SEVERE"/>
<ItemData ItemOID="IT.ADAE.AESEVN" Value="3"/>
<ItemData ItemOID="IT.ADAE.ASEV" Value="Severe"/>
<ItemData ItemOID="IT.ADAE.ASEVN" Value="3"/>
<ItemData ItemOID="IT.ADAE.SEVGR1" Value="Severe"/>
<ItemData ItemOID="IT.ADAE.SEVGR1N" Value="2"/>
<ItemData ItemOID="IT.ADAE.AEREL" Value="NOT RELATED"/>
<ItemData ItemOID="IT.ADAE.AERELN" Value="1"/>
<ItemData ItemOID="IT.ADAE.AREL" Value="Not Related"/>
<ItemData ItemOID="IT.ADAE.ARELN" Value="1"/>
<ItemData ItemOID="IT.ADAE.AETOXGR" Value="3"/>
<ItemData ItemOID="IT.ADAE.AETOXGRN" Value="3"/>
<ItemData ItemOID="IT.ADAE.AEACN" Value="NOT APPLICABLE"/>
<ItemData ItemOID="IT.ADAE.AGE" Value="21"/>
<ItemData ItemOID="IT.ADAE.SEX" Value="F"/>
<ItemData ItemOID="IT.ADAE.TRTP" Value="TRT A"/>
<ItemData ItemOID="IT.ADAE.TRTEDT" Value="17660"/>
<ItemData ItemOID="IT.ADAE.TRTSDT" Value="17618"/>
<ItemData ItemOID="IT.ADAE.SAFFL" Value="Y"/>
<ItemData ItemOID="IT.ADAE.TRTPN" Value="1"/>
</ItemGroupData>
<ItemGroupData ItemGroupOID="IG.ADAE" data:ItemGroupDataSeq="52">
<ItemData ItemOID="IT.ADAE.STUDYID" Value="SASCSTDEMODATA"/>
<ItemData ItemOID="IT.ADAE.USUBJID" Value="S002P018"/>
<ItemData ItemOID="IT.ADAE.AESEQ" Value="52"/>
<ItemData ItemOID="IT.ADAE.AETERM" Value="RASH"/>
<ItemData ItemOID="IT.ADAE.AEDECOD" Value="Rash"/>
<ItemData ItemOID="IT.ADAE.AEBODSYS" Value="SKIN AND SUBCUTANEOUS TISSUE DISORDERS"/>
<ItemData ItemOID="IT.ADAE.AEBDSYCD" Value="10040785"/>
<ItemData ItemOID="IT.ADAE.AELLT" Value="Rash"/>
<ItemData ItemOID="IT.ADAE.AELLTCD" Value="10037844"/>
<ItemData ItemOID="IT.ADAE.AEPTCD" Value="10037844"/>
<ItemData ItemOID="IT.ADAE.AEHLT" Value="Rashes, eruptions and exanthems NEC"/>
<ItemData ItemOID="IT.ADAE.AEHLTCD" Value="10052566"/>
<ItemData ItemOID="IT.ADAE.AEHLGT" Value="Epidermal and dermal conditions"/>
<ItemData ItemOID="IT.ADAE.AEHLGTCD" Value="10014982"/>
<ItemData ItemOID="IT.ADAE.AESOC" Value="Skin and subcutaneous tissue disorders"/>
<ItemData ItemOID="IT.ADAE.AESOCCD" Value="10040785"/>
<ItemData ItemOID="IT.ADAE.AESTDTC" Value="2008-04-26T08:30"/>
<ItemData ItemOID="IT.ADAE.ASTDTM" Value="1524817800"/>
<ItemData ItemOID="IT.ADAE.AEENDTC" Value="2008-05-06T19:30"/>
<ItemData ItemOID="IT.ADAE.AENDTM" Value="1525721400"/>
<ItemData ItemOID="IT.ADAE.ASTDY" Value="31"/>
<ItemData ItemOID="IT.ADAE.AENDY" Value="41"/>
<ItemData ItemOID="IT.ADAE.ADURN" Value="10"/>
<ItemData ItemOID="IT.ADAE.ADURU" Value="DAYS"/>
<ItemData ItemOID="IT.ADAE.AEDUR" Value="P10DT11H"/>
<ItemData ItemOID="IT.ADAE.TRTEMFL" Value="Y"/>
<ItemData ItemOID="IT.ADAE.AOCCFL" Value="Y"/>
<ItemData ItemOID="IT.ADAE.DOSEAEON" Value="20"/>
<ItemData ItemOID="IT.ADAE.DOSAEONU" Value="MG"/>
<ItemData ItemOID="IT.ADAE.DOSECUM" Value="60"/>
<ItemData ItemOID="IT.ADAE.DOSECUMU" Value="MG"/>
<ItemData ItemOID="IT.ADAE.AESER" Value="N"/>
<ItemData ItemOID="IT.ADAE.AESEV" Value="MILD"/>
<ItemData ItemOID="IT.ADAE.AESEVN" Value="1"/>
<ItemData ItemOID="IT.ADAE.ASEV" Value="Mild"/>
<ItemData ItemOID="IT.ADAE.ASEVN" Value="1"/>
<ItemData ItemOID="IT.ADAE.SEVGR1" Value="Non-severe"/>
<ItemData ItemOID="IT.ADAE.SEVGR1N" Value="1"/>
<ItemData ItemOID="IT.ADAE.AEREL" Value="LIKELY RELATED"/>
<ItemData ItemOID="IT.ADAE.AERELN" Value="2"/>
<ItemData ItemOID="IT.ADAE.AREL" Value="Likely Related"/>
<ItemData ItemOID="IT.ADAE.ARELN" Value="2"/>
<ItemData ItemOID="IT.ADAE.AETOXGR" Value="1"/>
<ItemData ItemOID="IT.ADAE.AETOXGRN" Value="1"/>
<ItemData ItemOID="IT.ADAE.AEACN" Value="DOSE REDUCED"/>
<ItemData ItemOID="IT.ADAE.CQ01NAM" Value="Pruritic or NOS rashes (CQ)"/>
<ItemData ItemOID="IT.ADAE.AGE" Value="21"/>
<ItemData ItemOID="IT.ADAE.SEX" Value="F"/>
<ItemData ItemOID="IT.ADAE.TRTP" Value="TRT A"/>
<ItemData ItemOID="IT.ADAE.TRTEDT" Value="17660"/>
<ItemData ItemOID="IT.ADAE.TRTSDT" Value="17618"/>
<ItemData ItemOID="IT.ADAE.SAFFL" Value="Y"/>
<ItemData ItemOID="IT.ADAE.TRTPN" Value="1"/>
</ItemGroupData>
<ItemGroupData ItemGroupOID="IG.ADAE" data:ItemGroupDataSeq="53">
<ItemData ItemOID="IT.ADAE.STUDYID" Value="SASCSTDEMODATA"/>
<ItemData ItemOID="IT.ADAE.USUBJID" Value="S002P019"/>
<ItemData ItemOID="IT.ADAE.AESEQ" Value="54"/>
<ItemData ItemOID="IT.ADAE.AETERM" Value="DIARRHEA"/>
<ItemData ItemOID="IT.ADAE.AEDECOD" Value="Diarrhoea"/>
<ItemData ItemOID="IT.ADAE.AEBODSYS" Value="GASTROINTESTINAL DISORDERS"/>
<ItemData ItemOID="IT.ADAE.AEBDSYCD" Value="10017947"/>
<ItemData ItemOID="IT.ADAE.AELLT" Value="Diarrhea"/>
<ItemData ItemOID="IT.ADAE.AELLTCD" Value="10012727"/>
<ItemData ItemOID="IT.ADAE.AEPTCD" Value="10012735"/>
<ItemData ItemOID="IT.ADAE.AEHLT" Value="Diarrhoea (excl infective)"/>
<ItemData ItemOID="IT.ADAE.AEHLTCD" Value="10012736"/>
<ItemData ItemOID="IT.ADAE.AEHLGT" Value="Gastrointestinal motility and defaecation conditions"/>
<ItemData ItemOID="IT.ADAE.AEHLGTCD" Value="10017977"/>
<ItemData ItemOID="IT.ADAE.AESOC" Value="Gastrointestinal disorders"/>
<ItemData ItemOID="IT.ADAE.AESOCCD" Value="10017947"/>
<ItemData ItemOID="IT.ADAE.AESTDTC" Value="2008-04-30T07:30"/>
<ItemData ItemOID="IT.ADAE.ASTDTM" Value="1525159800"/>
<ItemData ItemOID="IT.ADAE.AEENDTC" Value="2008-05-07"/>
<ItemData ItemOID="IT.ADAE.AENDTM" Value="1525780800"/>
<ItemData ItemOID="IT.ADAE.AENTMF" Value="H"/>
<ItemData ItemOID="IT.ADAE.ASTDY" Value="34"/>
<ItemData ItemOID="IT.ADAE.AENDY" Value="41"/>
<ItemData ItemOID="IT.ADAE.ADURN" Value="7"/>
<ItemData ItemOID="IT.ADAE.ADURU" Value="DAYS"/>
<ItemData ItemOID="IT.ADAE.AEDUR" Value="P7D"/>
<ItemData ItemOID="IT.ADAE.TRTEMFL" Value="Y"/>
<ItemData ItemOID="IT.ADAE.DOSEAEON" Value="80"/>
<ItemData ItemOID="IT.ADAE.DOSAEONU" Value="MG"/>
<ItemData ItemOID="IT.ADAE.DOSECUM" Value="80"/>
<ItemData ItemOID="IT.ADAE.DOSECUMU" Value="MG"/>
<ItemData ItemOID="IT.ADAE.AESER" Value="N"/>
<ItemData ItemOID="IT.ADAE.AESEV" Value="SEVERE"/>
<ItemData ItemOID="IT.ADAE.AESEVN" Value="3"/>
<ItemData ItemOID="IT.ADAE.ASEV" Value="Severe"/>
<ItemData ItemOID="IT.ADAE.ASEVN" Value="3"/>
<ItemData ItemOID="IT.ADAE.SEVGR1" Value="Severe"/>
<ItemData ItemOID="IT.ADAE.SEVGR1N" Value="2"/>
<ItemData ItemOID="IT.ADAE.AEREL" Value="NOT RELATED"/>
<ItemData ItemOID="IT.ADAE.AERELN" Value="1"/>
<ItemData ItemOID="IT.ADAE.AREL" Value="Not Related"/>
<ItemData ItemOID="IT.ADAE.ARELN" Value="1"/>
<ItemData ItemOID="IT.ADAE.AETOXGR" Value="3"/>
<ItemData ItemOID="IT.ADAE.AETOXGRN" Value="3"/>
<ItemData ItemOID="IT.ADAE.AEACN" Value="NOT APPLICABLE"/>
<ItemData ItemOID="IT.ADAE.SMQ01NAM" Value="Gastrointestinal nonspecific symptoms and therapeutic procedures (SMQ)"/>
<ItemData ItemOID="IT.ADAE.SMQ01CD" Value="20000140"/>
<ItemData ItemOID="IT.ADAE.SMQ01SC" Value="NARROW"/>
<ItemData ItemOID="IT.ADAE.SMQ01SCN" Value="2"/>
<ItemData ItemOID="IT.ADAE.AGE" Value="27"/>
<ItemData ItemOID="IT.ADAE.SEX" Value="M"/>
<ItemData ItemOID="IT.ADAE.TRTP" Value="TRT B"/>
<ItemData ItemOID="IT.ADAE.TRTEDT" Value="17661"/>
<ItemData ItemOID="IT.ADAE.TRTSDT" Value="17619"/>
<ItemData ItemOID="IT.ADAE.SAFFL" Value="Y"/>
<ItemData ItemOID="IT.ADAE.TRTPN" Value="2"/>
</ItemGroupData>
<ItemGroupData ItemGroupOID="IG.ADAE" data:ItemGroupDataSeq="54">
<ItemData ItemOID="IT.ADAE.STUDYID" Value="SASCSTDEMODATA"/>
<ItemData ItemOID="IT.ADAE.USUBJID" Value="S002P019"/>
<ItemData ItemOID="IT.ADAE.AESEQ" Value="53"/>
<ItemData ItemOID="IT.ADAE.AETERM" Value="URGENT DIARRHEA"/>
<ItemData ItemOID="IT.ADAE.AEDECOD" Value="Diarrhoea"/>
<ItemData ItemOID="IT.ADAE.AEBODSYS" Value="GASTROINTESTINAL DISORDERS"/>
<ItemData ItemOID="IT.ADAE.AEBDSYCD" Value="10017947"/>
<ItemData ItemOID="IT.ADAE.AELLT" Value="Urgent diarrhea"/>
<ItemData ItemOID="IT.ADAE.AELLTCD" Value="10055420"/>
<ItemData ItemOID="IT.ADAE.AEPTCD" Value="10012735"/>
<ItemData ItemOID="IT.ADAE.AEHLT" Value="Diarrhoea (excl infective)"/>
<ItemData ItemOID="IT.ADAE.AEHLTCD" Value="10012736"/>
<ItemData ItemOID="IT.ADAE.AEHLGT" Value="Gastrointestinal motility and defaecation conditions"/>
<ItemData ItemOID="IT.ADAE.AEHLGTCD" Value="10017977"/>
<ItemData ItemOID="IT.ADAE.AESOC" Value="Gastrointestinal disorders"/>
<ItemData ItemOID="IT.ADAE.AESOCCD" Value="10017947"/>
<ItemData ItemOID="IT.ADAE.AESTDTC" Value="2008-04-13T15:30"/>
<ItemData ItemOID="IT.ADAE.ASTDTM" Value="1523719800"/>
<ItemData ItemOID="IT.ADAE.AEENDTC" Value="2008-04-18T21:00"/>
<ItemData ItemOID="IT.ADAE.AENDTM" Value="1524171600"/>
<ItemData ItemOID="IT.ADAE.ASTDY" Value="18"/>
<ItemData ItemOID="IT.ADAE.AENDY" Value="23"/>
<ItemData ItemOID="IT.ADAE.ADURN" Value="5"/>
<ItemData ItemOID="IT.ADAE.ADURU" Value="DAYS"/>
<ItemData ItemOID="IT.ADAE.AEDUR" Value="P5DT5H30M"/>
<ItemData ItemOID="IT.ADAE.AOCCFL" Value="Y"/>
<ItemData ItemOID="IT.ADAE.AOCCIFL" Value="Y"/>
<ItemData ItemOID="IT.ADAE.DOSEAEON" Value="80"/>
<ItemData ItemOID="IT.ADAE.DOSAEONU" Value="MG"/>
<ItemData ItemOID="IT.ADAE.DOSECUM" Value="80"/>
<ItemData ItemOID="IT.ADAE.DOSECUMU" Value="MG"/>
<ItemData ItemOID="IT.ADAE.AESER" Value="N"/>
<ItemData ItemOID="IT.ADAE.AESEV" Value="SEVERE"/>
<ItemData ItemOID="IT.ADAE.AESEVN" Value="3"/>
<ItemData ItemOID="IT.ADAE.ASEV" Value="Severe"/>
<ItemData ItemOID="IT.ADAE.ASEVN" Value="3"/>
<ItemData ItemOID="IT.ADAE.SEVGR1" Value="Severe"/>
<ItemData ItemOID="IT.ADAE.SEVGR1N" Value="2"/>
<ItemData ItemOID="IT.ADAE.AEREL" Value="NOT RELATED"/>
<ItemData ItemOID="IT.ADAE.AERELN" Value="1"/>
<ItemData ItemOID="IT.ADAE.AREL" Value="Not Related"/>
<ItemData ItemOID="IT.ADAE.ARELN" Value="1"/>
<ItemData ItemOID="IT.ADAE.AETOXGR" Value="3"/>
<ItemData ItemOID="IT.ADAE.AETOXGRN" Value="3"/>
<ItemData ItemOID="IT.ADAE.AEACN" Value="NOT APPLICABLE"/>
<ItemData ItemOID="IT.ADAE.SMQ01NAM" Value="Gastrointestinal nonspecific symptoms and therapeutic procedures (SMQ)"/>
<ItemData ItemOID="IT.ADAE.SMQ01CD" Value="20000140"/>
<ItemData ItemOID="IT.ADAE.SMQ01SC" Value="NARROW"/>
<ItemData ItemOID="IT.ADAE.SMQ01SCN" Value="2"/>
<ItemData ItemOID="IT.ADAE.AGE" Value="27"/>
<ItemData ItemOID="IT.ADAE.SEX" Value="M"/>
<ItemData ItemOID="IT.ADAE.TRTP" Value="TRT B"/>
<ItemData ItemOID="IT.ADAE.TRTEDT" Value="17661"/>
<ItemData ItemOID="IT.ADAE.TRTSDT" Value="17619"/>
<ItemData ItemOID="IT.ADAE.SAFFL" Value="Y"/>
<ItemData ItemOID="IT.ADAE.TRTPN" Value="2"/>
</ItemGroupData>
<ItemGroupData ItemGroupOID="IG.ADAE" data:ItemGroupDataSeq="55">
<ItemData ItemOID="IT.ADAE.STUDYID" Value="SASCSTDEMODATA"/>
<ItemData ItemOID="IT.ADAE.USUBJID" Value="S002P022"/>
<ItemData ItemOID="IT.ADAE.AESEQ" Value="55"/>
<ItemData ItemOID="IT.ADAE.AETERM" Value="HEARTBURN-LIKE DYSPEPSIA"/>
<ItemData ItemOID="IT.ADAE.AEDECOD" Value="Dyspepsia"/>
<ItemData ItemOID="IT.ADAE.AEBODSYS" Value="GASTROINTESTINAL DISORDERS"/>
<ItemData ItemOID="IT.ADAE.AEBDSYCD" Value="10017947"/>
<ItemData ItemOID="IT.ADAE.AELLT" Value="Heartburn-like dyspepsia"/>
<ItemData ItemOID="IT.ADAE.AELLTCD" Value="10019328"/>
<ItemData ItemOID="IT.ADAE.AEPTCD" Value="10013946"/>
<ItemData ItemOID="IT.ADAE.AEHLT" Value="Dyspeptic signs and symptoms"/>
<ItemData ItemOID="IT.ADAE.AEHLTCD" Value="10013949"/>
<ItemData ItemOID="IT.ADAE.AEHLGT" Value="Gastrointestinal signs and symptoms"/>
<ItemData ItemOID="IT.ADAE.AEHLGTCD" Value="10018012"/>
<ItemData ItemOID="IT.ADAE.AESOC" Value="Gastrointestinal disorders"/>
<ItemData ItemOID="IT.ADAE.AESOCCD" Value="10017947"/>
<ItemData ItemOID="IT.ADAE.AESTDTC" Value="2008-04-28T01:00"/>
<ItemData ItemOID="IT.ADAE.ASTDTM" Value="1524963600"/>
<ItemData ItemOID="IT.ADAE.AEENDTC" Value="2008-04-29T08:30"/>
<ItemData ItemOID="IT.ADAE.AENDTM" Value="1525077000"/>
<ItemData ItemOID="IT.ADAE.ASTDY" Value="26"/>
<ItemData ItemOID="IT.ADAE.AENDY" Value="27"/>
<ItemData ItemOID="IT.ADAE.ADURN" Value="1"/>
<ItemData ItemOID="IT.ADAE.ADURU" Value="DAYS"/>
<ItemData ItemOID="IT.ADAE.AEDUR" Value="P1DT7H30M"/>
<ItemData ItemOID="IT.ADAE.TRTEMFL" Value="Y"/>
<ItemData ItemOID="IT.ADAE.AOCCFL" Value="Y"/>
<ItemData ItemOID="IT.ADAE.AOCCIFL" Value="Y"/>
<ItemData ItemOID="IT.ADAE.DOSEAEON" Value="40"/>
<ItemData ItemOID="IT.ADAE.DOSAEONU" Value="MG"/>
<ItemData ItemOID="IT.ADAE.DOSECUM" Value="40"/>
<ItemData ItemOID="IT.ADAE.DOSECUMU" Value="MG"/>
<ItemData ItemOID="IT.ADAE.AESER" Value="N"/>
<ItemData ItemOID="IT.ADAE.AESEV" Value="MILD"/>
<ItemData ItemOID="IT.ADAE.AESEVN" Value="1"/>
<ItemData ItemOID="IT.ADAE.ASEV" Value="Mild"/>
<ItemData ItemOID="IT.ADAE.ASEVN" Value="1"/>
<ItemData ItemOID="IT.ADAE.SEVGR1" Value="Non-severe"/>
<ItemData ItemOID="IT.ADAE.SEVGR1N" Value="1"/>
<ItemData ItemOID="IT.ADAE.AEREL" Value="NOT RELATED"/>
<ItemData ItemOID="IT.ADAE.AERELN" Value="1"/>
<ItemData ItemOID="IT.ADAE.AREL" Value="Not Related"/>
<ItemData ItemOID="IT.ADAE.ARELN" Value="1"/>
<ItemData ItemOID="IT.ADAE.AETOXGR" Value="1"/>
<ItemData ItemOID="IT.ADAE.AETOXGRN" Value="1"/>
<ItemData ItemOID="IT.ADAE.AEACN" Value="NOT APPLICABLE"/>
<ItemData ItemOID="IT.ADAE.AGE" Value="20"/>
<ItemData ItemOID="IT.ADAE.SEX" Value="M"/>
<ItemData ItemOID="IT.ADAE.TRTP" Value="TRT A"/>
<ItemData ItemOID="IT.ADAE.TRTEDT" Value="17668"/>
<ItemData ItemOID="IT.ADAE.TRTSDT" Value="17626"/>
<ItemData ItemOID="IT.ADAE.SAFFL" Value="Y"/>
<ItemData ItemOID="IT.ADAE.TRTPN" Value="1"/>
</ItemGroupData>
<ItemGroupData ItemGroupOID="IG.ADAE" data:ItemGroupDataSeq="56">
<ItemData ItemOID="IT.ADAE.STUDYID" Value="SASCSTDEMODATA"/>
<ItemData ItemOID="IT.ADAE.USUBJID" Value="S002P023"/>
<ItemData ItemOID="IT.ADAE.AESEQ" Value="56"/>
<ItemData ItemOID="IT.ADAE.AETERM" Value="ABDOMINAL PAIN"/>
<ItemData ItemOID="IT.ADAE.AEDECOD" Value="Abdominal pain"/>
<ItemData ItemOID="IT.ADAE.AEBODSYS" Value="GASTROINTESTINAL DISORDERS"/>
<ItemData ItemOID="IT.ADAE.AEBDSYCD" Value="10017947"/>
<ItemData ItemOID="IT.ADAE.AELLT" Value="Abdominal pain"/>
<ItemData ItemOID="IT.ADAE.AELLTCD" Value="10000081"/>
<ItemData ItemOID="IT.ADAE.AEPTCD" Value="10000081"/>
<ItemData ItemOID="IT.ADAE.AEHLT" Value="Gastrointestinal and abdominal pains (excl oral and throat)"/>
<ItemData ItemOID="IT.ADAE.AEHLTCD" Value="10017926"/>
<ItemData ItemOID="IT.ADAE.AEHLGT" Value="Gastrointestinal signs and symptoms"/>
<ItemData ItemOID="IT.ADAE.AEHLGTCD" Value="10018012"/>
<ItemData ItemOID="IT.ADAE.AESOC" Value="Gastrointestinal disorders"/>
<ItemData ItemOID="IT.ADAE.AESOCCD" Value="10017947"/>
<ItemData ItemOID="IT.ADAE.AESTDTC" Value="2008-04-19"/>
<ItemData ItemOID="IT.ADAE.ASTDTM" Value="1524225600"/>
<ItemData ItemOID="IT.ADAE.ASTTMF" Value="H"/>
<ItemData ItemOID="IT.ADAE.AEENDTC" Value="2008-04-21"/>
<ItemData ItemOID="IT.ADAE.AENDTM" Value="1524398400"/>
<ItemData ItemOID="IT.ADAE.AENTMF" Value="H"/>
<ItemData ItemOID="IT.ADAE.ASTDY" Value="13"/>
<ItemData ItemOID="IT.ADAE.AENDY" Value="15"/>
<ItemData ItemOID="IT.ADAE.ADURN" Value="2"/>
<ItemData ItemOID="IT.ADAE.ADURU" Value="DAYS"/>
<ItemData ItemOID="IT.ADAE.AEDUR" Value="P2D"/>
<ItemData ItemOID="IT.ADAE.AOCCIFL" Value="Y"/>
<ItemData ItemOID="IT.ADAE.DOSEAEON" Value="80"/>
<ItemData ItemOID="IT.ADAE.DOSAEONU" Value="MG"/>
<ItemData ItemOID="IT.ADAE.DOSECUM" Value="80"/>
<ItemData ItemOID="IT.ADAE.DOSECUMU" Value="MG"/>
<ItemData ItemOID="IT.ADAE.AESER" Value="N"/>
<ItemData ItemOID="IT.ADAE.AESEV" Value="SEVERE"/>
<ItemData ItemOID="IT.ADAE.AESEVN" Value="3"/>
<ItemData ItemOID="IT.ADAE.ASEV" Value="Severe"/>
<ItemData ItemOID="IT.ADAE.ASEVN" Value="3"/>
<ItemData ItemOID="IT.ADAE.SEVGR1" Value="Severe"/>
<ItemData ItemOID="IT.ADAE.SEVGR1N" Value="2"/>
<ItemData ItemOID="IT.ADAE.AEREL" Value="NOT RELATED"/>
<ItemData ItemOID="IT.ADAE.AERELN" Value="1"/>
<ItemData ItemOID="IT.ADAE.AREL" Value="Not Related"/>
<ItemData ItemOID="IT.ADAE.ARELN" Value="1"/>
<ItemData ItemOID="IT.ADAE.AETOXGR" Value="3"/>
<ItemData ItemOID="IT.ADAE.AETOXGRN" Value="3"/>
<ItemData ItemOID="IT.ADAE.AEACN" Value="NOT APPLICABLE"/>
<ItemData ItemOID="IT.ADAE.AGE" Value="40"/>
<ItemData ItemOID="IT.ADAE.SEX" Value="M"/>
<ItemData ItemOID="IT.ADAE.TRTP" Value="TRT B"/>
<ItemData ItemOID="IT.ADAE.TRTEDT" Value="17657"/>
<ItemData ItemOID="IT.ADAE.TRTSDT" Value="17629"/>
<ItemData ItemOID="IT.ADAE.SAFFL" Value="Y"/>
<ItemData ItemOID="IT.ADAE.TRTPN" Value="2"/>
</ItemGroupData>
<ItemGroupData ItemGroupOID="IG.ADAE" data:ItemGroupDataSeq="57">
<ItemData ItemOID="IT.ADAE.STUDYID" Value="SASCSTDEMODATA"/>
<ItemData ItemOID="IT.ADAE.USUBJID" Value="S002P023"/>
<ItemData ItemOID="IT.ADAE.AESEQ" Value="58"/>
<ItemData ItemOID="IT.ADAE.AETERM" Value="ACID DYSPEPSIA"/>
<ItemData ItemOID="IT.ADAE.AEDECOD" Value="Dyspepsia"/>
<ItemData ItemOID="IT.ADAE.AEBODSYS" Value="GASTROINTESTINAL DISORDERS"/>
<ItemData ItemOID="IT.ADAE.AEBDSYCD" Value="10017947"/>
<ItemData ItemOID="IT.ADAE.AELLT" Value="Acid dyspepsia"/>
<ItemData ItemOID="IT.ADAE.AELLTCD" Value="10000460"/>
<ItemData ItemOID="IT.ADAE.AEPTCD" Value="10013946"/>
<ItemData ItemOID="IT.ADAE.AEHLT" Value="Dyspeptic signs and symptoms"/>
<ItemData ItemOID="IT.ADAE.AEHLTCD" Value="10013949"/>
<ItemData ItemOID="IT.ADAE.AEHLGT" Value="Gastrointestinal signs and symptoms"/>
<ItemData ItemOID="IT.ADAE.AEHLGTCD" Value="10018012"/>
<ItemData ItemOID="IT.ADAE.AESOC" Value="Gastrointestinal disorders"/>
<ItemData ItemOID="IT.ADAE.AESOCCD" Value="10017947"/>
<ItemData ItemOID="IT.ADAE.AESTDTC" Value="2008-04-09T09:30"/>
<ItemData ItemOID="IT.ADAE.ASTDTM" Value="1523352600"/>
<ItemData ItemOID="IT.ADAE.AEENDTC" Value="2008-04-20T08:00"/>
<ItemData ItemOID="IT.ADAE.AENDTM" Value="1524297600"/>
<ItemData ItemOID="IT.ADAE.ASTDY" Value="3"/>
<ItemData ItemOID="IT.ADAE.AENDY" Value="14"/>
<ItemData ItemOID="IT.ADAE.ADURN" Value="11"/>
<ItemData ItemOID="IT.ADAE.ADURU" Value="DAYS"/>
<ItemData ItemOID="IT.ADAE.AEDUR" Value="P10DT22H30M"/>
<ItemData ItemOID="IT.ADAE.TRTEMFL" Value="Y"/>
<ItemData ItemOID="IT.ADAE.AOCCFL" Value="Y"/>
<ItemData ItemOID="IT.ADAE.DOSEAEON" Value="80"/>
<ItemData ItemOID="IT.ADAE.DOSAEONU" Value="MG"/>
<ItemData ItemOID="IT.ADAE.DOSECUM" Value="80"/>
<ItemData ItemOID="IT.ADAE.DOSECUMU" Value="MG"/>
<ItemData ItemOID="IT.ADAE.AESER" Value="N"/>
<ItemData ItemOID="IT.ADAE.AESEV" Value="MILD"/>
<ItemData ItemOID="IT.ADAE.AESEVN" Value="1"/>
<ItemData ItemOID="IT.ADAE.ASEV" Value="Mild"/>
<ItemData ItemOID="IT.ADAE.ASEVN" Value="1"/>
<ItemData ItemOID="IT.ADAE.SEVGR1" Value="Non-severe"/>
<ItemData ItemOID="IT.ADAE.SEVGR1N" Value="1"/>
<ItemData ItemOID="IT.ADAE.AEREL" Value="NOT RELATED"/>
<ItemData ItemOID="IT.ADAE.AERELN" Value="1"/>
<ItemData ItemOID="IT.ADAE.AREL" Value="Not Related"/>
<ItemData ItemOID="IT.ADAE.ARELN" Value="1"/>
<ItemData ItemOID="IT.ADAE.AETOXGR" Value="1"/>
<ItemData ItemOID="IT.ADAE.AETOXGRN" Value="1"/>
<ItemData ItemOID="IT.ADAE.AEACN" Value="NOT APPLICABLE"/>
<ItemData ItemOID="IT.ADAE.AGE" Value="40"/>
<ItemData ItemOID="IT.ADAE.SEX" Value="M"/>
<ItemData ItemOID="IT.ADAE.TRTP" Value="TRT B"/>
<ItemData ItemOID="IT.ADAE.TRTEDT" Value="17657"/>
<ItemData ItemOID="IT.ADAE.TRTSDT" Value="17629"/>
<ItemData ItemOID="IT.ADAE.SAFFL" Value="Y"/>
<ItemData ItemOID="IT.ADAE.TRTPN" Value="2"/>
</ItemGroupData>
<ItemGroupData ItemGroupOID="IG.ADAE" data:ItemGroupDataSeq="58">
<ItemData ItemOID="IT.ADAE.STUDYID" Value="SASCSTDEMODATA"/>
<ItemData ItemOID="IT.ADAE.USUBJID" Value="S002P023"/>
<ItemData ItemOID="IT.ADAE.AESEQ" Value="59"/>
<ItemData ItemOID="IT.ADAE.AETERM" Value="ACID REFLUX (OESOPHAGEAL)"/>
<ItemData ItemOID="IT.ADAE.AEDECOD" Value="Gastrooesophageal reflux disease"/>
<ItemData ItemOID="IT.ADAE.AEBODSYS" Value="GASTROINTESTINAL DISORDERS"/>
<ItemData ItemOID="IT.ADAE.AEBDSYCD" Value="10017947"/>
<ItemData ItemOID="IT.ADAE.AELLT" Value="Acid reflux (oesophageal)"/>
<ItemData ItemOID="IT.ADAE.AELLTCD" Value="10000479"/>
<ItemData ItemOID="IT.ADAE.AEPTCD" Value="10017885"/>
<ItemData ItemOID="IT.ADAE.AEHLT" Value="Gastrointestinal atonic and hypomotility disorders NEC"/>
<ItemData ItemOID="IT.ADAE.AEHLTCD" Value="10017933"/>
<ItemData ItemOID="IT.ADAE.AEHLGT" Value="Gastrointestinal motility and defaecation conditions"/>
<ItemData ItemOID="IT.ADAE.AEHLGTCD" Value="10017977"/>
<ItemData ItemOID="IT.ADAE.AESOC" Value="Gastrointestinal disorders"/>
<ItemData ItemOID="IT.ADAE.AESOCCD" Value="10017947"/>
<ItemData ItemOID="IT.ADAE.AESTDTC" Value="2008-04-22"/>
<ItemData ItemOID="IT.ADAE.ASTDTM" Value="1524484800"/>
<ItemData ItemOID="IT.ADAE.ASTTMF" Value="H"/>
<ItemData ItemOID="IT.ADAE.AEENDTC" Value="2008-05-05"/>
<ItemData ItemOID="IT.ADAE.AENDTM" Value="1525608000"/>
<ItemData ItemOID="IT.ADAE.AENTMF" Value="H"/>
<ItemData ItemOID="IT.ADAE.ASTDY" Value="16"/>
<ItemData ItemOID="IT.ADAE.AENDY" Value="29"/>
<ItemData ItemOID="IT.ADAE.ADURN" Value="13"/>
<ItemData ItemOID="IT.ADAE.ADURU" Value="DAYS"/>
<ItemData ItemOID="IT.ADAE.AEDUR" Value="P13D"/>
<ItemData ItemOID="IT.ADAE.TRTEMFL" Value="Y"/>
<ItemData ItemOID="IT.ADAE.DOSEAEON" Value="80"/>
<ItemData ItemOID="IT.ADAE.DOSAEONU" Value="MG"/>
<ItemData ItemOID="IT.ADAE.DOSECUM" Value="80"/>
<ItemData ItemOID="IT.ADAE.DOSECUMU" Value="MG"/>
<ItemData ItemOID="IT.ADAE.AESER" Value="N"/>
<ItemData ItemOID="IT.ADAE.AESEV" Value="MODERATE"/>
<ItemData ItemOID="IT.ADAE.AESEVN" Value="2"/>
<ItemData ItemOID="IT.ADAE.ASEV" Value="Moderate"/>
<ItemData ItemOID="IT.ADAE.ASEVN" Value="2"/>
<ItemData ItemOID="IT.ADAE.SEVGR1" Value="Non-severe"/>
<ItemData ItemOID="IT.ADAE.SEVGR1N" Value="1"/>
<ItemData ItemOID="IT.ADAE.AEREL" Value="NOT RELATED"/>
<ItemData ItemOID="IT.ADAE.AERELN" Value="1"/>
<ItemData ItemOID="IT.ADAE.AREL" Value="Not Related"/>
<ItemData ItemOID="IT.ADAE.ARELN" Value="1"/>
<ItemData ItemOID="IT.ADAE.AETOXGR" Value="2"/>
<ItemData ItemOID="IT.ADAE.AETOXGRN" Value="2"/>
<ItemData ItemOID="IT.ADAE.AEACN" Value="NOT APPLICABLE"/>
<ItemData ItemOID="IT.ADAE.AGE" Value="40"/>
<ItemData ItemOID="IT.ADAE.SEX" Value="M"/>
<ItemData ItemOID="IT.ADAE.TRTP" Value="TRT B"/>
<ItemData ItemOID="IT.ADAE.TRTEDT" Value="17657"/>
<ItemData ItemOID="IT.ADAE.TRTSDT" Value="17629"/>
<ItemData ItemOID="IT.ADAE.SAFFL" Value="Y"/>
<ItemData ItemOID="IT.ADAE.TRTPN" Value="2"/>
</ItemGroupData>
<ItemGroupData ItemGroupOID="IG.ADAE" data:ItemGroupDataSeq="59">
<ItemData ItemOID="IT.ADAE.STUDYID" Value="SASCSTDEMODATA"/>
<ItemData ItemOID="IT.ADAE.USUBJID" Value="S002P023"/>
<ItemData ItemOID="IT.ADAE.AESEQ" Value="57"/>
<ItemData ItemOID="IT.ADAE.AETERM" Value="LOOSE STOOLS"/>
<ItemData ItemOID="IT.ADAE.AEDECOD" Value="Diarrhoea"/>
<ItemData ItemOID="IT.ADAE.AEBODSYS" Value="GASTROINTESTINAL DISORDERS"/>
<ItemData ItemOID="IT.ADAE.AEBDSYCD" Value="10017947"/>
<ItemData ItemOID="IT.ADAE.AELLT" Value="Loose stools"/>
<ItemData ItemOID="IT.ADAE.AELLTCD" Value="10024840"/>
<ItemData ItemOID="IT.ADAE.AEPTCD" Value="10012735"/>
<ItemData ItemOID="IT.ADAE.AEHLT" Value="Diarrhoea (excl infective)"/>
<ItemData ItemOID="IT.ADAE.AEHLTCD" Value="10012736"/>
<ItemData ItemOID="IT.ADAE.AEHLGT" Value="Gastrointestinal motility and defaecation conditions"/>
<ItemData ItemOID="IT.ADAE.AEHLGTCD" Value="10017977"/>
<ItemData ItemOID="IT.ADAE.AESOC" Value="Gastrointestinal disorders"/>
<ItemData ItemOID="IT.ADAE.AESOCCD" Value="10017947"/>
<ItemData ItemOID="IT.ADAE.AESTDTC" Value="2008-04-28T02:00"/>
<ItemData ItemOID="IT.ADAE.ASTDTM" Value="1524967200"/>
<ItemData ItemOID="IT.ADAE.AEENDTC" Value="2008-05-05"/>
<ItemData ItemOID="IT.ADAE.AENDTM" Value="1525608000"/>
<ItemData ItemOID="IT.ADAE.AENTMF" Value="H"/>
<ItemData ItemOID="IT.ADAE.ASTDY" Value="22"/>
<ItemData ItemOID="IT.ADAE.AENDY" Value="29"/>
<ItemData ItemOID="IT.ADAE.ADURN" Value="7"/>
<ItemData ItemOID="IT.ADAE.ADURU" Value="DAYS"/>
<ItemData ItemOID="IT.ADAE.AEDUR" Value="P7D"/>
<ItemData ItemOID="IT.ADAE.DOSEAEON" Value="80"/>
<ItemData ItemOID="IT.ADAE.DOSAEONU" Value="MG"/>
<ItemData ItemOID="IT.ADAE.DOSECUM" Value="80"/>
<ItemData ItemOID="IT.ADAE.DOSECUMU" Value="MG"/>
<ItemData ItemOID="IT.ADAE.AESER" Value="N"/>
<ItemData ItemOID="IT.ADAE.AESEV" Value="SEVERE"/>
<ItemData ItemOID="IT.ADAE.AESEVN" Value="3"/>
<ItemData ItemOID="IT.ADAE.ASEV" Value="Severe"/>
<ItemData ItemOID="IT.ADAE.ASEVN" Value="3"/>
<ItemData ItemOID="IT.ADAE.SEVGR1" Value="Severe"/>
<ItemData ItemOID="IT.ADAE.SEVGR1N" Value="2"/>
<ItemData ItemOID="IT.ADAE.AEREL" Value="NOT RELATED"/>
<ItemData ItemOID="IT.ADAE.AERELN" Value="1"/>
<ItemData ItemOID="IT.ADAE.AREL" Value="Not Related"/>
<ItemData ItemOID="IT.ADAE.ARELN" Value="1"/>
<ItemData ItemOID="IT.ADAE.AETOXGR" Value="3"/>
<ItemData ItemOID="IT.ADAE.AETOXGRN" Value="3"/>
<ItemData ItemOID="IT.ADAE.AEACN" Value="NOT APPLICABLE"/>
<ItemData ItemOID="IT.ADAE.SMQ01NAM" Value="Gastrointestinal nonspecific symptoms and therapeutic procedures (SMQ)"/>
<ItemData ItemOID="IT.ADAE.SMQ01CD" Value="20000140"/>
<ItemData ItemOID="IT.ADAE.SMQ01SC" Value="NARROW"/>
<ItemData ItemOID="IT.ADAE.SMQ01SCN" Value="2"/>
<ItemData ItemOID="IT.ADAE.AGE" Value="40"/>
<ItemData ItemOID="IT.ADAE.SEX" Value="M"/>
<ItemData ItemOID="IT.ADAE.TRTP" Value="TRT B"/>
<ItemData ItemOID="IT.ADAE.TRTEDT" Value="17657"/>
<ItemData ItemOID="IT.ADAE.TRTSDT" Value="17629"/>
<ItemData ItemOID="IT.ADAE.SAFFL" Value="Y"/>
<ItemData ItemOID="IT.ADAE.TRTPN" Value="2"/>
</ItemGroupData>
<ItemGroupData ItemGroupOID="IG.ADAE" data:ItemGroupDataSeq="60">
<ItemData ItemOID="IT.ADAE.STUDYID" Value="SASCSTDEMODATA"/>
<ItemData ItemOID="IT.ADAE.USUBJID" Value="S002P024"/>
<ItemData ItemOID="IT.ADAE.AESEQ" Value="60"/>
<ItemData ItemOID="IT.ADAE.AETERM" Value="ACID REFLUX (OESOPHAGEAL)"/>
<ItemData ItemOID="IT.ADAE.AEDECOD" Value="Gastrooesophageal reflux disease"/>
<ItemData ItemOID="IT.ADAE.AEBODSYS" Value="GASTROINTESTINAL DISORDERS"/>
<ItemData ItemOID="IT.ADAE.AEBDSYCD" Value="10017947"/>
<ItemData ItemOID="IT.ADAE.AELLT" Value="Acid reflux (oesophageal)"/>
<ItemData ItemOID="IT.ADAE.AELLTCD" Value="10000479"/>
<ItemData ItemOID="IT.ADAE.AEPTCD" Value="10017885"/>
<ItemData ItemOID="IT.ADAE.AEHLT" Value="Gastrointestinal atonic and hypomotility disorders NEC"/>
<ItemData ItemOID="IT.ADAE.AEHLTCD" Value="10017933"/>
<ItemData ItemOID="IT.ADAE.AEHLGT" Value="Gastrointestinal motility and defaecation conditions"/>
<ItemData ItemOID="IT.ADAE.AEHLGTCD" Value="10017977"/>
<ItemData ItemOID="IT.ADAE.AESOC" Value="Gastrointestinal disorders"/>
<ItemData ItemOID="IT.ADAE.AESOCCD" Value="10017947"/>
<ItemData ItemOID="IT.ADAE.AESTDTC" Value="2008-04-13"/>
<ItemData ItemOID="IT.ADAE.ASTDTM" Value="1523707200"/>
<ItemData ItemOID="IT.ADAE.ASTTMF" Value="H"/>
<ItemData ItemOID="IT.ADAE.AEENDTC" Value="2008-04-17"/>
<ItemData ItemOID="IT.ADAE.AENDTM" Value="1524052800"/>
<ItemData ItemOID="IT.ADAE.AENTMF" Value="H"/>
<ItemData ItemOID="IT.ADAE.ASTDY" Value="5"/>
<ItemData ItemOID="IT.ADAE.AENDY" Value="9"/>
<ItemData ItemOID="IT.ADAE.ADURN" Value="4"/>
<ItemData ItemOID="IT.ADAE.ADURU" Value="DAYS"/>
<ItemData ItemOID="IT.ADAE.AEDUR" Value="P4D"/>
<ItemData ItemOID="IT.ADAE.AOCCFL" Value="Y"/>
<ItemData ItemOID="IT.ADAE.AOCCIFL" Value="Y"/>
<ItemData ItemOID="IT.ADAE.DOSEAEON" Value="40"/>
<ItemData ItemOID="IT.ADAE.DOSAEONU" Value="MG"/>
<ItemData ItemOID="IT.ADAE.DOSECUM" Value="40"/>
<ItemData ItemOID="IT.ADAE.DOSECUMU" Value="MG"/>
<ItemData ItemOID="IT.ADAE.AESER" Value="N"/>
<ItemData ItemOID="IT.ADAE.AESEV" Value="SEVERE"/>
<ItemData ItemOID="IT.ADAE.AESEVN" Value="3"/>
<ItemData ItemOID="IT.ADAE.ASEV" Value="Severe"/>
<ItemData ItemOID="IT.ADAE.ASEVN" Value="3"/>
<ItemData ItemOID="IT.ADAE.SEVGR1" Value="Severe"/>
<ItemData ItemOID="IT.ADAE.SEVGR1N" Value="2"/>
<ItemData ItemOID="IT.ADAE.AEREL" Value="NOT RELATED"/>
<ItemData ItemOID="IT.ADAE.AERELN" Value="1"/>
<ItemData ItemOID="IT.ADAE.AREL" Value="Not Related"/>
<ItemData ItemOID="IT.ADAE.ARELN" Value="1"/>
<ItemData ItemOID="IT.ADAE.AETOXGR" Value="3"/>
<ItemData ItemOID="IT.ADAE.AETOXGRN" Value="3"/>
<ItemData ItemOID="IT.ADAE.AEACN" Value="NOT APPLICABLE"/>
<ItemData ItemOID="IT.ADAE.AGE" Value="24"/>
<ItemData ItemOID="IT.ADAE.SEX" Value="F"/>
<ItemData ItemOID="IT.ADAE.TRTP" Value="TRT A"/>
<ItemData ItemOID="IT.ADAE.TRTEDT" Value="17673"/>
<ItemData ItemOID="IT.ADAE.TRTSDT" Value="17631"/>
<ItemData ItemOID="IT.ADAE.SAFFL" Value="Y"/>
<ItemData ItemOID="IT.ADAE.TRTPN" Value="1"/>
</ItemGroupData>
<ItemGroupData ItemGroupOID="IG.ADAE" data:ItemGroupDataSeq="61">
<ItemData ItemOID="IT.ADAE.STUDYID" Value="SASCSTDEMODATA"/>
<ItemData ItemOID="IT.ADAE.USUBJID" Value="S002P024"/>
<ItemData ItemOID="IT.ADAE.AESEQ" Value="61"/>
<ItemData ItemOID="IT.ADAE.AETERM" Value="RASH"/>
<ItemData ItemOID="IT.ADAE.AEDECOD" Value="Rash"/>
<ItemData ItemOID="IT.ADAE.AEBODSYS" Value="SKIN AND SUBCUTANEOUS TISSUE DISORDERS"/>
<ItemData ItemOID="IT.ADAE.AEBDSYCD" Value="10040785"/>
<ItemData ItemOID="IT.ADAE.AELLT" Value="Rash"/>
<ItemData ItemOID="IT.ADAE.AELLTCD" Value="10037844"/>
<ItemData ItemOID="IT.ADAE.AEPTCD" Value="10037844"/>
<ItemData ItemOID="IT.ADAE.AEHLT" Value="Rashes, eruptions and exanthems NEC"/>
<ItemData ItemOID="IT.ADAE.AEHLTCD" Value="10052566"/>
<ItemData ItemOID="IT.ADAE.AEHLGT" Value="Epidermal and dermal conditions"/>
<ItemData ItemOID="IT.ADAE.AEHLGTCD" Value="10014982"/>
<ItemData ItemOID="IT.ADAE.AESOC" Value="Skin and subcutaneous tissue disorders"/>
<ItemData ItemOID="IT.ADAE.AESOCCD" Value="10040785"/>
<ItemData ItemOID="IT.ADAE.AESTDTC" Value="2008-05-13T11:30"/>
<ItemData ItemOID="IT.ADAE.ASTDTM" Value="1526297400"/>
<ItemData ItemOID="IT.ADAE.AEENDTC" Value="2008-05-21"/>
<ItemData ItemOID="IT.ADAE.AENDTM" Value="1526990400"/>
<ItemData ItemOID="IT.ADAE.AENTMF" Value="H"/>
<ItemData ItemOID="IT.ADAE.ASTDY" Value="35"/>
<ItemData ItemOID="IT.ADAE.AENDY" Value="43"/>
<ItemData ItemOID="IT.ADAE.ADURN" Value="8"/>
<ItemData ItemOID="IT.ADAE.ADURU" Value="DAYS"/>
<ItemData ItemOID="IT.ADAE.AEDUR" Value="P8D"/>
<ItemData ItemOID="IT.ADAE.TRTEMFL" Value="Y"/>
<ItemData ItemOID="IT.ADAE.DOSEAEON" Value="40"/>
<ItemData ItemOID="IT.ADAE.DOSAEONU" Value="MG"/>
<ItemData ItemOID="IT.ADAE.DOSECUM" Value="40"/>
<ItemData ItemOID="IT.ADAE.DOSECUMU" Value="MG"/>
<ItemData ItemOID="IT.ADAE.AESER" Value="N"/>
<ItemData ItemOID="IT.ADAE.AESEV" Value="MODERATE"/>
<ItemData ItemOID="IT.ADAE.AESEVN" Value="2"/>
<ItemData ItemOID="IT.ADAE.ASEV" Value="Moderate"/>
<ItemData ItemOID="IT.ADAE.ASEVN" Value="2"/>
<ItemData ItemOID="IT.ADAE.SEVGR1" Value="Non-severe"/>
<ItemData ItemOID="IT.ADAE.SEVGR1N" Value="1"/>
<ItemData ItemOID="IT.ADAE.AEREL" Value="RELATED"/>
<ItemData ItemOID="IT.ADAE.AERELN" Value="3"/>
<ItemData ItemOID="IT.ADAE.AREL" Value="Related"/>
<ItemData ItemOID="IT.ADAE.ARELN" Value="3"/>
<ItemData ItemOID="IT.ADAE.AETOXGR" Value="2"/>
<ItemData ItemOID="IT.ADAE.AETOXGRN" Value="2"/>
<ItemData ItemOID="IT.ADAE.AEACN" Value="NOT APPLICABLE"/>
<ItemData ItemOID="IT.ADAE.CQ01NAM" Value="Pruritic or NOS rashes (CQ)"/>
<ItemData ItemOID="IT.ADAE.AGE" Value="24"/>
<ItemData ItemOID="IT.ADAE.SEX" Value="F"/>
<ItemData ItemOID="IT.ADAE.TRTP" Value="TRT A"/>
<ItemData ItemOID="IT.ADAE.TRTEDT" Value="17673"/>
<ItemData ItemOID="IT.ADAE.TRTSDT" Value="17631"/>
<ItemData ItemOID="IT.ADAE.SAFFL" Value="Y"/>
<ItemData ItemOID="IT.ADAE.TRTPN" Value="1"/>
</ItemGroupData>
<ItemGroupData ItemGroupOID="IG.ADAE" data:ItemGroupDataSeq="62">
<ItemData ItemOID="IT.ADAE.STUDYID" Value="SASCSTDEMODATA"/>
<ItemData ItemOID="IT.ADAE.USUBJID" Value="S002P026"/>
<ItemData ItemOID="IT.ADAE.AESEQ" Value="62"/>
<ItemData ItemOID="IT.ADAE.AETERM" Value="HEADACHE TRANSIENT"/>
<ItemData ItemOID="IT.ADAE.AEDECOD" Value="Headache"/>
<ItemData ItemOID="IT.ADAE.AEBODSYS" Value="NERVOUS SYSTEM DISORDERS"/>
<ItemData ItemOID="IT.ADAE.AEBDSYCD" Value="10029205"/>
<ItemData ItemOID="IT.ADAE.AELLT" Value="Headache transient"/>
<ItemData ItemOID="IT.ADAE.AELLTCD" Value="10019227"/>
<ItemData ItemOID="IT.ADAE.AEPTCD" Value="10019211"/>
<ItemData ItemOID="IT.ADAE.AEHLT" Value="Headaches NEC"/>
<ItemData ItemOID="IT.ADAE.AEHLTCD" Value="10019233"/>
<ItemData ItemOID="IT.ADAE.AEHLGT" Value="Headaches"/>
<ItemData ItemOID="IT.ADAE.AEHLGTCD" Value="10019231"/>
<ItemData ItemOID="IT.ADAE.AESOC" Value="Nervous system disorders"/>
<ItemData ItemOID="IT.ADAE.AESOCCD" Value="10029205"/>
<ItemData ItemOID="IT.ADAE.AESTDTC" Value="2008-05-07T22:30"/>
<ItemData ItemOID="IT.ADAE.ASTDTM" Value="1525818600"/>
<ItemData ItemOID="IT.ADAE.AEENDTC" Value="2008-05-18"/>
<ItemData ItemOID="IT.ADAE.AENDTM" Value="1526731200"/>
<ItemData ItemOID="IT.ADAE.AENTMF" Value="H"/>
<ItemData ItemOID="IT.ADAE.ASTDY" Value="17"/>
<ItemData ItemOID="IT.ADAE.AENDY" Value="28"/>
<ItemData ItemOID="IT.ADAE.ADURN" Value="11"/>
<ItemData ItemOID="IT.ADAE.ADURU" Value="DAYS"/>
<ItemData ItemOID="IT.ADAE.AEDUR" Value="P11D"/>
<ItemData ItemOID="IT.ADAE.AOCCFL" Value="Y"/>
<ItemData ItemOID="IT.ADAE.AOCCIFL" Value="Y"/>
<ItemData ItemOID="IT.ADAE.DOSEAEON" Value="120"/>
<ItemData ItemOID="IT.ADAE.DOSAEONU" Value="MG"/>
<ItemData ItemOID="IT.ADAE.DOSECUM" Value="120"/>
<ItemData ItemOID="IT.ADAE.DOSECUMU" Value="MG"/>
<ItemData ItemOID="IT.ADAE.AESER" Value="N"/>
<ItemData ItemOID="IT.ADAE.AESEV" Value="SEVERE"/>
<ItemData ItemOID="IT.ADAE.AESEVN" Value="3"/>
<ItemData ItemOID="IT.ADAE.ASEV" Value="Severe"/>
<ItemData ItemOID="IT.ADAE.ASEVN" Value="3"/>
<ItemData ItemOID="IT.ADAE.SEVGR1" Value="Severe"/>
<ItemData ItemOID="IT.ADAE.SEVGR1N" Value="2"/>
<ItemData ItemOID="IT.ADAE.AEREL" Value="NOT RELATED"/>
<ItemData ItemOID="IT.ADAE.AERELN" Value="1"/>
<ItemData ItemOID="IT.ADAE.AREL" Value="Not Related"/>
<ItemData ItemOID="IT.ADAE.ARELN" Value="1"/>
<ItemData ItemOID="IT.ADAE.AETOXGR" Value="3"/>
<ItemData ItemOID="IT.ADAE.AETOXGRN" Value="3"/>
<ItemData ItemOID="IT.ADAE.AEACN" Value="NOT APPLICABLE"/>
<ItemData ItemOID="IT.ADAE.AGE" Value="37"/>
<ItemData ItemOID="IT.ADAE.SEX" Value="F"/>
<ItemData ItemOID="IT.ADAE.TRTP" Value="TRT C"/>
<ItemData ItemOID="IT.ADAE.TRTEDT" Value="17685"/>
<ItemData ItemOID="IT.ADAE.TRTSDT" Value="17643"/>
<ItemData ItemOID="IT.ADAE.SAFFL" Value="Y"/>
<ItemData ItemOID="IT.ADAE.TRTPN" Value="3"/>
</ItemGroupData>
<ItemGroupData ItemGroupOID="IG.ADAE" data:ItemGroupDataSeq="63">
<ItemData ItemOID="IT.ADAE.STUDYID" Value="SASCSTDEMODATA"/>
<ItemData ItemOID="IT.ADAE.USUBJID" Value="S002P027"/>
<ItemData ItemOID="IT.ADAE.AESEQ" Value="63"/>
<ItemData ItemOID="IT.ADAE.AETERM" Value="HEADACHE DISCOMFORT"/>
<ItemData ItemOID="IT.ADAE.AEDECOD" Value="Headache"/>
<ItemData ItemOID="IT.ADAE.AEBODSYS" Value="NERVOUS SYSTEM DISORDERS"/>
<ItemData ItemOID="IT.ADAE.AEBDSYCD" Value="10029205"/>
<ItemData ItemOID="IT.ADAE.AELLT" Value="Headache discomfort"/>
<ItemData ItemOID="IT.ADAE.AELLTCD" Value="10019213"/>
<ItemData ItemOID="IT.ADAE.AEPTCD" Value="10019211"/>
<ItemData ItemOID="IT.ADAE.AEHLT" Value="Headaches NEC"/>
<ItemData ItemOID="IT.ADAE.AEHLTCD" Value="10019233"/>
<ItemData ItemOID="IT.ADAE.AEHLGT" Value="Headaches"/>
<ItemData ItemOID="IT.ADAE.AEHLGTCD" Value="10019231"/>
<ItemData ItemOID="IT.ADAE.AESOC" Value="Nervous system disorders"/>
<ItemData ItemOID="IT.ADAE.AESOCCD" Value="10029205"/>
<ItemData ItemOID="IT.ADAE.AESTDTC" Value="2008-05-08"/>
<ItemData ItemOID="IT.ADAE.ASTDTM" Value="1525867200"/>
<ItemData ItemOID="IT.ADAE.ASTTMF" Value="H"/>
<ItemData ItemOID="IT.ADAE.AEENDTC" Value="2008-05-20T16:30"/>
<ItemData ItemOID="IT.ADAE.AENDTM" Value="1526920200"/>
<ItemData ItemOID="IT.ADAE.ASTDY" Value="16"/>
<ItemData ItemOID="IT.ADAE.AENDY" Value="28"/>
<ItemData ItemOID="IT.ADAE.ADURN" Value="12"/>
<ItemData ItemOID="IT.ADAE.ADURU" Value="DAYS"/>
<ItemData ItemOID="IT.ADAE.AEDUR" Value="P12D"/>
<ItemData ItemOID="IT.ADAE.TRTEMFL" Value="Y"/>
<ItemData ItemOID="IT.ADAE.DOSEAEON" Value="120"/>
<ItemData ItemOID="IT.ADAE.DOSAEONU" Value="MG"/>
<ItemData ItemOID="IT.ADAE.DOSECUM" Value="120"/>
<ItemData ItemOID="IT.ADAE.DOSECUMU" Value="MG"/>
<ItemData ItemOID="IT.ADAE.AESER" Value="N"/>
<ItemData ItemOID="IT.ADAE.AESEV" Value="MODERATE"/>
<ItemData ItemOID="IT.ADAE.AESEVN" Value="2"/>
<ItemData ItemOID="IT.ADAE.ASEV" Value="Moderate"/>
<ItemData ItemOID="IT.ADAE.ASEVN" Value="2"/>
<ItemData ItemOID="IT.ADAE.SEVGR1" Value="Non-severe"/>
<ItemData ItemOID="IT.ADAE.SEVGR1N" Value="1"/>
<ItemData ItemOID="IT.ADAE.AEREL" Value="NOT RELATED"/>
<ItemData ItemOID="IT.ADAE.AERELN" Value="1"/>
<ItemData ItemOID="IT.ADAE.AREL" Value="Not Related"/>
<ItemData ItemOID="IT.ADAE.ARELN" Value="1"/>
<ItemData ItemOID="IT.ADAE.AETOXGR" Value="2"/>
<ItemData ItemOID="IT.ADAE.AETOXGRN" Value="2"/>
<ItemData ItemOID="IT.ADAE.AEACN" Value="NOT APPLICABLE"/>
<ItemData ItemOID="IT.ADAE.AGE" Value="43"/>
<ItemData ItemOID="IT.ADAE.SEX" Value="F"/>
<ItemData ItemOID="IT.ADAE.TRTP" Value="TRT C"/>
<ItemData ItemOID="IT.ADAE.TRTEDT" Value="17673"/>
<ItemData ItemOID="IT.ADAE.TRTSDT" Value="17645"/>
<ItemData ItemOID="IT.ADAE.SAFFL" Value="Y"/>
<ItemData ItemOID="IT.ADAE.TRTPN" Value="3"/>
</ItemGroupData>
<ItemGroupData ItemGroupOID="IG.ADAE" data:ItemGroupDataSeq="64">
<ItemData ItemOID="IT.ADAE.STUDYID" Value="SASCSTDEMODATA"/>
<ItemData ItemOID="IT.ADAE.USUBJID" Value="S002P027"/>
<ItemData ItemOID="IT.ADAE.AESEQ" Value="65"/>
<ItemData ItemOID="IT.ADAE.AETERM" Value="PRURITIC RASH"/>
<ItemData ItemOID="IT.ADAE.AEDECOD" Value="Rash pruritic"/>
<ItemData ItemOID="IT.ADAE.AEBODSYS" Value="SKIN AND SUBCUTANEOUS TISSUE DISORDERS"/>
<ItemData ItemOID="IT.ADAE.AEBDSYCD" Value="10040785"/>
<ItemData ItemOID="IT.ADAE.AELLT" Value="Pruritic rash"/>
<ItemData ItemOID="IT.ADAE.AELLTCD" Value="10037085"/>
<ItemData ItemOID="IT.ADAE.AEPTCD" Value="10037884"/>
<ItemData ItemOID="IT.ADAE.AEHLT" Value="Pruritus NEC"/>
<ItemData ItemOID="IT.ADAE.AEHLTCD" Value="10049293"/>
<ItemData ItemOID="IT.ADAE.AEHLGT" Value="Epidermal and dermal conditions"/>
<ItemData ItemOID="IT.ADAE.AEHLGTCD" Value="10014982"/>
<ItemData ItemOID="IT.ADAE.AESOC" Value="Skin and subcutaneous tissue disorders"/>
<ItemData ItemOID="IT.ADAE.AESOCCD" Value="10040785"/>
<ItemData ItemOID="IT.ADAE.AESTDTC" Value="2008-04-26T04:00"/>
<ItemData ItemOID="IT.ADAE.ASTDTM" Value="1524801600"/>
<ItemData ItemOID="IT.ADAE.AEENDTC" Value="2008-05-06T17:30"/>
<ItemData ItemOID="IT.ADAE.AENDTM" Value="1525714200"/>
<ItemData ItemOID="IT.ADAE.ASTDY" Value="4"/>
<ItemData ItemOID="IT.ADAE.AENDY" Value="14"/>
<ItemData ItemOID="IT.ADAE.ADURN" Value="10"/>
<ItemData ItemOID="IT.ADAE.ADURU" Value="DAYS"/>
<ItemData ItemOID="IT.ADAE.AEDUR" Value="P10DT13H30M"/>
<ItemData ItemOID="IT.ADAE.TRTEMFL" Value="Y"/>
<ItemData ItemOID="IT.ADAE.AOCCFL" Value="Y"/>
<ItemData ItemOID="IT.ADAE.AOCCIFL" Value="Y"/>
<ItemData ItemOID="IT.ADAE.DOSEAEON" Value="120"/>
<ItemData ItemOID="IT.ADAE.DOSAEONU" Value="MG"/>
<ItemData ItemOID="IT.ADAE.DOSECUM" Value="120"/>
<ItemData ItemOID="IT.ADAE.DOSECUMU" Value="MG"/>
<ItemData ItemOID="IT.ADAE.AESER" Value="N"/>
<ItemData ItemOID="IT.ADAE.AESEV" Value="MODERATE"/>
<ItemData ItemOID="IT.ADAE.AESEVN" Value="2"/>
<ItemData ItemOID="IT.ADAE.ASEV" Value="Moderate"/>
<ItemData ItemOID="IT.ADAE.ASEVN" Value="2"/>
<ItemData ItemOID="IT.ADAE.SEVGR1" Value="Non-severe"/>
<ItemData ItemOID="IT.ADAE.SEVGR1N" Value="1"/>
<ItemData ItemOID="IT.ADAE.AEREL" Value="LIKELY RELATED"/>
<ItemData ItemOID="IT.ADAE.AERELN" Value="2"/>
<ItemData ItemOID="IT.ADAE.AREL" Value="Likely Related"/>
<ItemData ItemOID="IT.ADAE.ARELN" Value="2"/>
<ItemData ItemOID="IT.ADAE.AETOXGR" Value="2"/>
<ItemData ItemOID="IT.ADAE.AETOXGRN" Value="2"/>
<ItemData ItemOID="IT.ADAE.AEACN" Value="NOT APPLICABLE"/>
<ItemData ItemOID="IT.ADAE.AGE" Value="43"/>
<ItemData ItemOID="IT.ADAE.SEX" Value="F"/>
<ItemData ItemOID="IT.ADAE.TRTP" Value="TRT C"/>
<ItemData ItemOID="IT.ADAE.TRTEDT" Value="17673"/>
<ItemData ItemOID="IT.ADAE.TRTSDT" Value="17645"/>
<ItemData ItemOID="IT.ADAE.SAFFL" Value="Y"/>
<ItemData ItemOID="IT.ADAE.TRTPN" Value="3"/>
</ItemGroupData>
<ItemGroupData ItemGroupOID="IG.ADAE" data:ItemGroupDataSeq="65">
<ItemData ItemOID="IT.ADAE.STUDYID" Value="SASCSTDEMODATA"/>
<ItemData ItemOID="IT.ADAE.USUBJID" Value="S002P027"/>
<ItemData ItemOID="IT.ADAE.AESEQ" Value="64"/>
<ItemData ItemOID="IT.ADAE.AETERM" Value="RASH"/>
<ItemData ItemOID="IT.ADAE.AEDECOD" Value="Rash"/>
<ItemData ItemOID="IT.ADAE.AEBODSYS" Value="SKIN AND SUBCUTANEOUS TISSUE DISORDERS"/>
<ItemData ItemOID="IT.ADAE.AEBDSYCD" Value="10040785"/>
<ItemData ItemOID="IT.ADAE.AELLT" Value="Rash"/>
<ItemData ItemOID="IT.ADAE.AELLTCD" Value="10037844"/>
<ItemData ItemOID="IT.ADAE.AEPTCD" Value="10037844"/>
<ItemData ItemOID="IT.ADAE.AEHLT" Value="Rashes, eruptions and exanthems NEC"/>
<ItemData ItemOID="IT.ADAE.AEHLTCD" Value="10052566"/>
<ItemData ItemOID="IT.ADAE.AEHLGT" Value="Epidermal and dermal conditions"/>
<ItemData ItemOID="IT.ADAE.AEHLGTCD" Value="10014982"/>
<ItemData ItemOID="IT.ADAE.AESOC" Value="Skin and subcutaneous tissue disorders"/>
<ItemData ItemOID="IT.ADAE.AESOCCD" Value="10040785"/>
<ItemData ItemOID="IT.ADAE.AESTDTC" Value="2008-05-12T09:00"/>
<ItemData ItemOID="IT.ADAE.ASTDTM" Value="1526202000"/>
<ItemData ItemOID="IT.ADAE.AEENDTC" Value="2008-05-21"/>
<ItemData ItemOID="IT.ADAE.AENDTM" Value="1526990400"/>
<ItemData ItemOID="IT.ADAE.AENTMF" Value="H"/>
<ItemData ItemOID="IT.ADAE.ASTDY" Value="20"/>
<ItemData ItemOID="IT.ADAE.AENDY" Value="29"/>
<ItemData ItemOID="IT.ADAE.ADURN" Value="9"/>
<ItemData ItemOID="IT.ADAE.ADURU" Value="DAYS"/>
<ItemData ItemOID="IT.ADAE.AEDUR" Value="P9D"/>
<ItemData ItemOID="IT.ADAE.TRTEMFL" Value="Y"/>
<ItemData ItemOID="IT.ADAE.DOSEAEON" Value="120"/>
<ItemData ItemOID="IT.ADAE.DOSAEONU" Value="MG"/>
<ItemData ItemOID="IT.ADAE.DOSECUM" Value="120"/>
<ItemData ItemOID="IT.ADAE.DOSECUMU" Value="MG"/>
<ItemData ItemOID="IT.ADAE.AESER" Value="Y"/>
<ItemData ItemOID="IT.ADAE.ASEV" Value="Other"/>
<ItemData ItemOID="IT.ADAE.AREL" Value="Other"/>
<ItemData ItemOID="IT.ADAE.AETOXGRN" Value="2"/>
<ItemData ItemOID="IT.ADAE.AEACN" Value="NOT APPLICABLE"/>
<ItemData ItemOID="IT.ADAE.CQ01NAM" Value="Pruritic or NOS rashes (CQ)"/>
<ItemData ItemOID="IT.ADAE.AGE" Value="43"/>
<ItemData ItemOID="IT.ADAE.SEX" Value="F"/>
<ItemData ItemOID="IT.ADAE.TRTP" Value="TRT C"/>
<ItemData ItemOID="IT.ADAE.TRTEDT" Value="17673"/>
<ItemData ItemOID="IT.ADAE.TRTSDT" Value="17645"/>
<ItemData ItemOID="IT.ADAE.SAFFL" Value="Y"/>
<ItemData ItemOID="IT.ADAE.TRTPN" Value="3"/>
</ItemGroupData>
<ItemGroupData ItemGroupOID="IG.ADAE" data:ItemGroupDataSeq="66">
<ItemData ItemOID="IT.ADAE.STUDYID" Value="SASCSTDEMODATA"/>
<ItemData ItemOID="IT.ADAE.USUBJID" Value="S002P030"/>
<ItemData ItemOID="IT.ADAE.AESEQ" Value="66"/>
<ItemData ItemOID="IT.ADAE.AETERM" Value="DIARRHEA"/>
<ItemData ItemOID="IT.ADAE.AEDECOD" Value="Diarrhoea"/>
<ItemData ItemOID="IT.ADAE.AEBODSYS" Value="GASTROINTESTINAL DISORDERS"/>
<ItemData ItemOID="IT.ADAE.AEBDSYCD" Value="10017947"/>
<ItemData ItemOID="IT.ADAE.AELLT" Value="Diarrhea"/>
<ItemData ItemOID="IT.ADAE.AELLTCD" Value="10012727"/>
<ItemData ItemOID="IT.ADAE.AEPTCD" Value="10012735"/>
<ItemData ItemOID="IT.ADAE.AEHLT" Value="Diarrhoea (excl infective)"/>
<ItemData ItemOID="IT.ADAE.AEHLTCD" Value="10012736"/>
<ItemData ItemOID="IT.ADAE.AEHLGT" Value="Gastrointestinal motility and defaecation conditions"/>
<ItemData ItemOID="IT.ADAE.AEHLGTCD" Value="10017977"/>
<ItemData ItemOID="IT.ADAE.AESOC" Value="Gastrointestinal disorders"/>
<ItemData ItemOID="IT.ADAE.AESOCCD" Value="10017947"/>
<ItemData ItemOID="IT.ADAE.AESTDTC" Value="2008-04-27T08:00"/>
<ItemData ItemOID="IT.ADAE.ASTDTM" Value="1524902400"/>
<ItemData ItemOID="IT.ADAE.AEENDTC" Value="2008-04-30T03:00"/>
<ItemData ItemOID="IT.ADAE.AENDTM" Value="1525143600"/>
<ItemData ItemOID="IT.ADAE.ASTDY" Value="3"/>
<ItemData ItemOID="IT.ADAE.AENDY" Value="6"/>
<ItemData ItemOID="IT.ADAE.ADURN" Value="3"/>
<ItemData ItemOID="IT.ADAE.ADURU" Value="DAYS"/>
<ItemData ItemOID="IT.ADAE.AEDUR" Value="P2DT19H"/>
<ItemData ItemOID="IT.ADAE.AOCCFL" Value="Y"/>
<ItemData ItemOID="IT.ADAE.DOSEAEON" Value="40"/>
<ItemData ItemOID="IT.ADAE.DOSAEONU" Value="MG"/>
<ItemData ItemOID="IT.ADAE.DOSECUM" Value="40"/>
<ItemData ItemOID="IT.ADAE.DOSECUMU" Value="MG"/>
<ItemData ItemOID="IT.ADAE.AESER" Value="N"/>
<ItemData ItemOID="IT.ADAE.AESEV" Value="MILD"/>
<ItemData ItemOID="IT.ADAE.AESEVN" Value="1"/>
<ItemData ItemOID="IT.ADAE.ASEV" Value="Mild"/>
<ItemData ItemOID="IT.ADAE.ASEVN" Value="1"/>
<ItemData ItemOID="IT.ADAE.SEVGR1" Value="Non-severe"/>
<ItemData ItemOID="IT.ADAE.SEVGR1N" Value="1"/>
<ItemData ItemOID="IT.ADAE.AEREL" Value="NOT RELATED"/>
<ItemData ItemOID="IT.ADAE.AERELN" Value="1"/>
<ItemData ItemOID="IT.ADAE.AREL" Value="Not Related"/>
<ItemData ItemOID="IT.ADAE.ARELN" Value="1"/>
<ItemData ItemOID="IT.ADAE.AETOXGR" Value="1"/>
<ItemData ItemOID="IT.ADAE.AETOXGRN" Value="1"/>
<ItemData ItemOID="IT.ADAE.AEACN" Value="NOT APPLICABLE"/>
<ItemData ItemOID="IT.ADAE.SMQ01NAM" Value="Gastrointestinal nonspecific symptoms and therapeutic procedures (SMQ)"/>
<ItemData ItemOID="IT.ADAE.SMQ01CD" Value="20000140"/>
<ItemData ItemOID="IT.ADAE.SMQ01SC" Value="NARROW"/>
<ItemData ItemOID="IT.ADAE.SMQ01SCN" Value="2"/>
<ItemData ItemOID="IT.ADAE.AGE" Value="50"/>
<ItemData ItemOID="IT.ADAE.SEX" Value="F"/>
<ItemData ItemOID="IT.ADAE.TRTP" Value="TRT A"/>
<ItemData ItemOID="IT.ADAE.TRTEDT" Value="17675"/>
<ItemData ItemOID="IT.ADAE.TRTSDT" Value="17647"/>
<ItemData ItemOID="IT.ADAE.SAFFL" Value="Y"/>
<ItemData ItemOID="IT.ADAE.TRTPN" Value="1"/>
</ItemGroupData>
<ItemGroupData ItemGroupOID="IG.ADAE" data:ItemGroupDataSeq="67">
<ItemData ItemOID="IT.ADAE.STUDYID" Value="SASCSTDEMODATA"/>
<ItemData ItemOID="IT.ADAE.USUBJID" Value="S002P030"/>
<ItemData ItemOID="IT.ADAE.AESEQ" Value="67"/>
<ItemData ItemOID="IT.ADAE.AETERM" Value="RASH"/>
<ItemData ItemOID="IT.ADAE.AEDECOD" Value="Rash"/>
<ItemData ItemOID="IT.ADAE.AEBODSYS" Value="SKIN AND SUBCUTANEOUS TISSUE DISORDERS"/>
<ItemData ItemOID="IT.ADAE.AEBDSYCD" Value="10040785"/>
<ItemData ItemOID="IT.ADAE.AELLT" Value="Rash"/>
<ItemData ItemOID="IT.ADAE.AELLTCD" Value="10037844"/>
<ItemData ItemOID="IT.ADAE.AEPTCD" Value="10037844"/>
<ItemData ItemOID="IT.ADAE.AEHLT" Value="Rashes, eruptions and exanthems NEC"/>
<ItemData ItemOID="IT.ADAE.AEHLTCD" Value="10052566"/>
<ItemData ItemOID="IT.ADAE.AEHLGT" Value="Epidermal and dermal conditions"/>
<ItemData ItemOID="IT.ADAE.AEHLGTCD" Value="10014982"/>
<ItemData ItemOID="IT.ADAE.AESOC" Value="Skin and subcutaneous tissue disorders"/>
<ItemData ItemOID="IT.ADAE.AESOCCD" Value="10040785"/>
<ItemData ItemOID="IT.ADAE.AESTDTC" Value="2008-05-15T21:00"/>
<ItemData ItemOID="IT.ADAE.ASTDTM" Value="1526504400"/>
<ItemData ItemOID="IT.ADAE.AEENDTC" Value="2008-05-16T23:00"/>
<ItemData ItemOID="IT.ADAE.AENDTM" Value="1526598000"/>
<ItemData ItemOID="IT.ADAE.ASTDY" Value="21"/>
<ItemData ItemOID="IT.ADAE.AENDY" Value="22"/>
<ItemData ItemOID="IT.ADAE.ADURN" Value="1"/>
<ItemData ItemOID="IT.ADAE.ADURU" Value="DAYS"/>
<ItemData ItemOID="IT.ADAE.AEDUR" Value="P1DT2H"/>
<ItemData ItemOID="IT.ADAE.AOCCIFL" Value="Y"/>
<ItemData ItemOID="IT.ADAE.DOSEAEON" Value="40"/>
<ItemData ItemOID="IT.ADAE.DOSAEONU" Value="MG"/>
<ItemData ItemOID="IT.ADAE.DOSECUM" Value="40"/>
<ItemData ItemOID="IT.ADAE.DOSECUMU" Value="MG"/>
<ItemData ItemOID="IT.ADAE.AESER" Value="Y"/>
<ItemData ItemOID="IT.ADAE.AESEV" Value="SEVERE"/>
<ItemData ItemOID="IT.ADAE.AESEVN" Value="3"/>
<ItemData ItemOID="IT.ADAE.ASEV" Value="Severe"/>
<ItemData ItemOID="IT.ADAE.ASEVN" Value="3"/>
<ItemData ItemOID="IT.ADAE.SEVGR1" Value="Severe"/>
<ItemData ItemOID="IT.ADAE.SEVGR1N" Value="2"/>
<ItemData ItemOID="IT.ADAE.AEREL" Value="RELATED"/>
<ItemData ItemOID="IT.ADAE.AERELN" Value="3"/>
<ItemData ItemOID="IT.ADAE.AREL" Value="Related"/>
<ItemData ItemOID="IT.ADAE.ARELN" Value="3"/>
<ItemData ItemOID="IT.ADAE.AETOXGR" Value="3"/>
<ItemData ItemOID="IT.ADAE.AETOXGRN" Value="3"/>
<ItemData ItemOID="IT.ADAE.AEACN" Value="WITHDRAWN"/>
<ItemData ItemOID="IT.ADAE.SMQ01NAM" Value="Gastrointestinal nonspecific symptoms and therapeutic procedures (SMQ)"/>
<ItemData ItemOID="IT.ADAE.SMQ01CD" Value="20000140"/>
<ItemData ItemOID="IT.ADAE.SMQ01SC" Value="NARROW"/>
<ItemData ItemOID="IT.ADAE.SMQ01SCN" Value="2"/>
<ItemData ItemOID="IT.ADAE.CQ01NAM" Value="Pruritic or NOS rashes (CQ)"/>
<ItemData ItemOID="IT.ADAE.AGE" Value="50"/>
<ItemData ItemOID="IT.ADAE.SEX" Value="F"/>
<ItemData ItemOID="IT.ADAE.TRTP" Value="TRT A"/>
<ItemData ItemOID="IT.ADAE.TRTEDT" Value="17675"/>
<ItemData ItemOID="IT.ADAE.TRTSDT" Value="17647"/>
<ItemData ItemOID="IT.ADAE.SAFFL" Value="Y"/>
<ItemData ItemOID="IT.ADAE.TRTPN" Value="1"/>
</ItemGroupData>
<ItemGroupData ItemGroupOID="IG.ADAE" data:ItemGroupDataSeq="68">
<ItemData ItemOID="IT.ADAE.STUDYID" Value="SASCSTDEMODATA"/>
<ItemData ItemOID="IT.ADAE.USUBJID" Value="S002P031"/>
<ItemData ItemOID="IT.ADAE.AESEQ" Value="68"/>
<ItemData ItemOID="IT.ADAE.AETERM" Value="HEADACHE"/>
<ItemData ItemOID="IT.ADAE.AEDECOD" Value="Headache"/>
<ItemData ItemOID="IT.ADAE.AEBODSYS" Value="NERVOUS SYSTEM DISORDERS"/>
<ItemData ItemOID="IT.ADAE.AEBDSYCD" Value="10029205"/>
<ItemData ItemOID="IT.ADAE.AELLT" Value="Headache"/>
<ItemData ItemOID="IT.ADAE.AELLTCD" Value="10019211"/>
<ItemData ItemOID="IT.ADAE.AEPTCD" Value="10019211"/>
<ItemData ItemOID="IT.ADAE.AEHLT" Value="Headaches NEC"/>
<ItemData ItemOID="IT.ADAE.AEHLTCD" Value="10019233"/>
<ItemData ItemOID="IT.ADAE.AEHLGT" Value="Headaches"/>
<ItemData ItemOID="IT.ADAE.AEHLGTCD" Value="10019231"/>
<ItemData ItemOID="IT.ADAE.AESOC" Value="Nervous system disorders"/>
<ItemData ItemOID="IT.ADAE.AESOCCD" Value="10029205"/>
<ItemData ItemOID="IT.ADAE.AESTDTC" Value="2008-05-15T01:00"/>
<ItemData ItemOID="IT.ADAE.ASTDTM" Value="1526432400"/>
<ItemData ItemOID="IT.ADAE.AEENDTC" Value="2008-05-25T10:00"/>
<ItemData ItemOID="IT.ADAE.AENDTM" Value="1527328800"/>
<ItemData ItemOID="IT.ADAE.ASTDY" Value="18"/>
<ItemData ItemOID="IT.ADAE.AENDY" Value="28"/>
<ItemData ItemOID="IT.ADAE.ADURN" Value="10"/>
<ItemData ItemOID="IT.ADAE.ADURU" Value="DAYS"/>
<ItemData ItemOID="IT.ADAE.AEDUR" Value="P10DT9H"/>
<ItemData ItemOID="IT.ADAE.TRTEMFL" Value="Y"/>
<ItemData ItemOID="IT.ADAE.AOCCFL" Value="Y"/>
<ItemData ItemOID="IT.ADAE.AOCCIFL" Value="Y"/>
<ItemData ItemOID="IT.ADAE.DOSEAEON" Value="40"/>
<ItemData ItemOID="IT.ADAE.DOSAEONU" Value="MG"/>
<ItemData ItemOID="IT.ADAE.DOSECUM" Value="40"/>
<ItemData ItemOID="IT.ADAE.DOSECUMU" Value="MG"/>
<ItemData ItemOID="IT.ADAE.AESER" Value="N"/>
<ItemData ItemOID="IT.ADAE.AESEV" Value="SEVERE"/>
<ItemData ItemOID="IT.ADAE.AESEVN" Value="3"/>
<ItemData ItemOID="IT.ADAE.ASEV" Value="Severe"/>
<ItemData ItemOID="IT.ADAE.ASEVN" Value="3"/>
<ItemData ItemOID="IT.ADAE.SEVGR1" Value="Severe"/>
<ItemData ItemOID="IT.ADAE.SEVGR1N" Value="2"/>
<ItemData ItemOID="IT.ADAE.AREL" Value="Other"/>
<ItemData ItemOID="IT.ADAE.AETOXGR" Value="3"/>
<ItemData ItemOID="IT.ADAE.AETOXGRN" Value="3"/>
<ItemData ItemOID="IT.ADAE.AEACN" Value="NOT APPLICABLE"/>
<ItemData ItemOID="IT.ADAE.AGE" Value="32"/>
<ItemData ItemOID="IT.ADAE.SEX" Value="F"/>
<ItemData ItemOID="IT.ADAE.TRTP" Value="TRT A"/>
<ItemData ItemOID="IT.ADAE.TRTEDT" Value="17694"/>
<ItemData ItemOID="IT.ADAE.TRTSDT" Value="17651"/>
<ItemData ItemOID="IT.ADAE.SAFFL" Value="Y"/>
<ItemData ItemOID="IT.ADAE.TRTPN" Value="1"/>
</ItemGroupData>
<ItemGroupData ItemGroupOID="IG.ADAE" data:ItemGroupDataSeq="69">
<ItemData ItemOID="IT.ADAE.STUDYID" Value="SASCSTDEMODATA"/>
<ItemData ItemOID="IT.ADAE.USUBJID" Value="S002P031"/>
<ItemData ItemOID="IT.ADAE.AESEQ" Value="69"/>
<ItemData ItemOID="IT.ADAE.AETERM" Value="PRURITIC RASH"/>
<ItemData ItemOID="IT.ADAE.AEDECOD" Value="Rash pruritic"/>
<ItemData ItemOID="IT.ADAE.AEBODSYS" Value="SKIN AND SUBCUTANEOUS TISSUE DISORDERS"/>
<ItemData ItemOID="IT.ADAE.AEBDSYCD" Value="10040785"/>
<ItemData ItemOID="IT.ADAE.AELLT" Value="Pruritic rash"/>
<ItemData ItemOID="IT.ADAE.AELLTCD" Value="10037085"/>
<ItemData ItemOID="IT.ADAE.AEPTCD" Value="10037884"/>
<ItemData ItemOID="IT.ADAE.AEHLT" Value="Pruritus NEC"/>
<ItemData ItemOID="IT.ADAE.AEHLTCD" Value="10049293"/>
<ItemData ItemOID="IT.ADAE.AEHLGT" Value="Epidermal and dermal conditions"/>
<ItemData ItemOID="IT.ADAE.AEHLGTCD" Value="10014982"/>
<ItemData ItemOID="IT.ADAE.AESOC" Value="Skin and subcutaneous tissue disorders"/>
<ItemData ItemOID="IT.ADAE.AESOCCD" Value="10040785"/>
<ItemData ItemOID="IT.ADAE.AESTDTC" Value="2008-06-02T22:30"/>
<ItemData ItemOID="IT.ADAE.ASTDTM" Value="1528065000"/>
<ItemData ItemOID="IT.ADAE.AEENDTC" Value="2008-06-05T18:30"/>
<ItemData ItemOID="IT.ADAE.AENDTM" Value="1528309800"/>
<ItemData ItemOID="IT.ADAE.ASTDY" Value="34"/>
<ItemData ItemOID="IT.ADAE.AENDY" Value="37"/>
<ItemData ItemOID="IT.ADAE.ADURN" Value="3"/>
<ItemData ItemOID="IT.ADAE.ADURU" Value="DAYS"/>
<ItemData ItemOID="IT.ADAE.AEDUR" Value="P2DT20H"/>
<ItemData ItemOID="IT.ADAE.TRTEMFL" Value="Y"/>
<ItemData ItemOID="IT.ADAE.DOSEAEON" Value="40"/>
<ItemData ItemOID="IT.ADAE.DOSAEONU" Value="MG"/>
<ItemData ItemOID="IT.ADAE.DOSECUM" Value="40"/>
<ItemData ItemOID="IT.ADAE.DOSECUMU" Value="MG"/>
<ItemData ItemOID="IT.ADAE.AESER" Value="Y"/>
<ItemData ItemOID="IT.ADAE.AESEV" Value="SEVERE"/>
<ItemData ItemOID="IT.ADAE.AESEVN" Value="3"/>
<ItemData ItemOID="IT.ADAE.ASEV" Value="Severe"/>
<ItemData ItemOID="IT.ADAE.ASEVN" Value="3"/>
<ItemData ItemOID="IT.ADAE.SEVGR1" Value="Severe"/>
<ItemData ItemOID="IT.ADAE.SEVGR1N" Value="2"/>
<ItemData ItemOID="IT.ADAE.AEREL" Value="LIKELY RELATED"/>
<ItemData ItemOID="IT.ADAE.AERELN" Value="2"/>
<ItemData ItemOID="IT.ADAE.AREL" Value="Likely Related"/>
<ItemData ItemOID="IT.ADAE.ARELN" Value="2"/>
<ItemData ItemOID="IT.ADAE.AETOXGR" Value="3"/>
<ItemData ItemOID="IT.ADAE.AETOXGRN" Value="3"/>
<ItemData ItemOID="IT.ADAE.AEACN" Value="NOT APPLICABLE"/>
<ItemData ItemOID="IT.ADAE.AGE" Value="32"/>
<ItemData ItemOID="IT.ADAE.SEX" Value="F"/>
<ItemData ItemOID="IT.ADAE.TRTP" Value="TRT A"/>
<ItemData ItemOID="IT.ADAE.TRTEDT" Value="17694"/>
<ItemData ItemOID="IT.ADAE.TRTSDT" Value="17651"/>
<ItemData ItemOID="IT.ADAE.SAFFL" Value="Y"/>
<ItemData ItemOID="IT.ADAE.TRTPN" Value="1"/>
</ItemGroupData>
<ItemGroupData ItemGroupOID="IG.ADAE" data:ItemGroupDataSeq="70">
<ItemData ItemOID="IT.ADAE.STUDYID" Value="SASCSTDEMODATA"/>
<ItemData ItemOID="IT.ADAE.USUBJID" Value="S002P032"/>
<ItemData ItemOID="IT.ADAE.AESEQ" Value="70"/>
<ItemData ItemOID="IT.ADAE.AETERM" Value="DIARRHEA"/>
<ItemData ItemOID="IT.ADAE.AEDECOD" Value="Diarrhoea"/>
<ItemData ItemOID="IT.ADAE.AEBODSYS" Value="GASTROINTESTINAL DISORDERS"/>
<ItemData ItemOID="IT.ADAE.AEBDSYCD" Value="10017947"/>
<ItemData ItemOID="IT.ADAE.AELLT" Value="Diarrhea"/>
<ItemData ItemOID="IT.ADAE.AELLTCD" Value="10012727"/>
<ItemData ItemOID="IT.ADAE.AEPTCD" Value="10012735"/>
<ItemData ItemOID="IT.ADAE.AEHLT" Value="Diarrhoea (excl infective)"/>
<ItemData ItemOID="IT.ADAE.AEHLTCD" Value="10012736"/>
<ItemData ItemOID="IT.ADAE.AEHLGT" Value="Gastrointestinal motility and defaecation conditions"/>
<ItemData ItemOID="IT.ADAE.AEHLGTCD" Value="10017977"/>
<ItemData ItemOID="IT.ADAE.AESOC" Value="Gastrointestinal disorders"/>
