<?xml version="1.0" encoding="UTF-8"?>
<!-- Produced from SAS data using SAS Clinical Standards Toolkit -->
<ODM
xmlns="http://www.cdisc.org/ns/odm/v1.3"
xmlns:data="http://www.cdisc.org/ns/Dataset-XML/v1.0"
ODMVersion="1.3.2"
FileType="Snapshot"
FileOID="SAS_CST_Define.ADTTE"
PriorFileOID="SAS_CST_Define"
CreationDateTime="2022-05-31T16:59:31"
data:DatasetXMLVersion="1.0.0">
<ClinicalData StudyOID="SAS_CST_Define" MetaDataVersionOID="MDV.1">
<ItemGroupData ItemGroupOID="IG.ADTTE" data:ItemGroupDataSeq="1">
<ItemData ItemOID="IT.ADTTE.STUDYID" Value="SASCSTDEMODATA"/>
<ItemData ItemOID="IT.ADTTE.USUBJID" Value="S001P001"/>
<ItemData ItemOID="IT.ADTTE.TRTP" Value="TRT B"/>
<ItemData ItemOID="IT.ADTTE.TRTPN" Value="2"/>
<ItemData ItemOID="IT.ADTTE.PARAM" Value="Successful study completion"/>
<ItemData ItemOID="IT.ADTTE.PARAMCD" Value="STDYCOMP"/>
<ItemData ItemOID="IT.ADTTE.STARTDT" Value="17569"/>
<ItemData ItemOID="IT.ADTTE.SRCDOM" Value="DS"/>
<ItemData ItemOID="IT.ADTTE.SRCVAR" Value="DSDECOD"/>
</ItemGroupData>
<ItemGroupData ItemGroupOID="IG.ADTTE" data:ItemGroupDataSeq="2">
<ItemData ItemOID="IT.ADTTE.STUDYID" Value="SASCSTDEMODATA"/>
<ItemData ItemOID="IT.ADTTE.USUBJID" Value="S001P002"/>
<ItemData ItemOID="IT.ADTTE.TRTP" Value="TRT C"/>
<ItemData ItemOID="IT.ADTTE.TRTPN" Value="3"/>
<ItemData ItemOID="IT.ADTTE.ADT" Value="17602"/>
<ItemData ItemOID="IT.ADTTE.AVISIT" Value="RANDOMIZATION"/>
<ItemData ItemOID="IT.ADTTE.PARAM" Value="Successful study completion"/>
<ItemData ItemOID="IT.ADTTE.PARAMCD" Value="STDYCOMP"/>
<ItemData ItemOID="IT.ADTTE.AVAL" Value="30"/>
<ItemData ItemOID="IT.ADTTE.STARTDT" Value="17573"/>
<ItemData ItemOID="IT.ADTTE.CNSR" Value="1"/>
<ItemData ItemOID="IT.ADTTE.EVNTDESC" Value="LOST TO FOLLOW UP"/>
<ItemData ItemOID="IT.ADTTE.SRCDOM" Value="DS"/>
<ItemData ItemOID="IT.ADTTE.SRCVAR" Value="DSDECOD"/>
<ItemData ItemOID="IT.ADTTE.SRCSEQ" Value="5"/>
</ItemGroupData>
<ItemGroupData ItemGroupOID="IG.ADTTE" data:ItemGroupDataSeq="3">
<ItemData ItemOID="IT.ADTTE.STUDYID" Value="SASCSTDEMODATA"/>
<ItemData ItemOID="IT.ADTTE.USUBJID" Value="S001P003"/>
<ItemData ItemOID="IT.ADTTE.TRTP" Value="TRT A"/>
<ItemData ItemOID="IT.ADTTE.TRTPN" Value="1"/>
<ItemData ItemOID="IT.ADTTE.ADT" Value="17617"/>
<ItemData ItemOID="IT.ADTTE.AVISIT" Value="6 WEEKS"/>
<ItemData ItemOID="IT.ADTTE.PARAM" Value="Successful study completion"/>
<ItemData ItemOID="IT.ADTTE.PARAMCD" Value="STDYCOMP"/>
<ItemData ItemOID="IT.ADTTE.AVAL" Value="42"/>
<ItemData ItemOID="IT.ADTTE.STARTDT" Value="17576"/>
<ItemData ItemOID="IT.ADTTE.CNSR" Value="0"/>
<ItemData ItemOID="IT.ADTTE.EVNTDESC" Value="COMPLETED"/>
<ItemData ItemOID="IT.ADTTE.SRCDOM" Value="DS"/>
<ItemData ItemOID="IT.ADTTE.SRCVAR" Value="DSDECOD"/>
<ItemData ItemOID="IT.ADTTE.SRCSEQ" Value="7"/>
</ItemGroupData>
<ItemGroupData ItemGroupOID="IG.ADTTE" data:ItemGroupDataSeq="4">
<ItemData ItemOID="IT.ADTTE.STUDYID" Value="SASCSTDEMODATA"/>
<ItemData ItemOID="IT.ADTTE.USUBJID" Value="S001P004"/>
<ItemData ItemOID="IT.ADTTE.TRTP" Value="TRT A"/>
<ItemData ItemOID="IT.ADTTE.TRTPN" Value="1"/>
<ItemData ItemOID="IT.ADTTE.ADT" Value="17605"/>
<ItemData ItemOID="IT.ADTTE.AVISIT" Value="4 WEEKS"/>
<ItemData ItemOID="IT.ADTTE.PARAM" Value="Successful study completion"/>
<ItemData ItemOID="IT.ADTTE.PARAMCD" Value="STDYCOMP"/>
<ItemData ItemOID="IT.ADTTE.AVAL" Value="29"/>
<ItemData ItemOID="IT.ADTTE.STARTDT" Value="17577"/>
<ItemData ItemOID="IT.ADTTE.CNSR" Value="1"/>
<ItemData ItemOID="IT.ADTTE.EVNTDESC" Value="LOST TO FOLLOW UP"/>
<ItemData ItemOID="IT.ADTTE.SRCDOM" Value="DS"/>
<ItemData ItemOID="IT.ADTTE.SRCVAR" Value="DSDECOD"/>
<ItemData ItemOID="IT.ADTTE.SRCSEQ" Value="11"/>
</ItemGroupData>
<ItemGroupData ItemGroupOID="IG.ADTTE" data:ItemGroupDataSeq="5">
<ItemData ItemOID="IT.ADTTE.STUDYID" Value="SASCSTDEMODATA"/>
<ItemData ItemOID="IT.ADTTE.USUBJID" Value="S001P005"/>
<ItemData ItemOID="IT.ADTTE.TRTP" Value="TRT C"/>
<ItemData ItemOID="IT.ADTTE.TRTPN" Value="3"/>
<ItemData ItemOID="IT.ADTTE.ADT" Value="17624"/>
<ItemData ItemOID="IT.ADTTE.AVISIT" Value="6 WEEKS"/>
<ItemData ItemOID="IT.ADTTE.PARAM" Value="Successful study completion"/>
<ItemData ItemOID="IT.ADTTE.PARAMCD" Value="STDYCOMP"/>
<ItemData ItemOID="IT.ADTTE.AVAL" Value="43"/>
<ItemData ItemOID="IT.ADTTE.STARTDT" Value="17582"/>
<ItemData ItemOID="IT.ADTTE.CNSR" Value="0"/>
<ItemData ItemOID="IT.ADTTE.EVNTDESC" Value="COMPLETED"/>
<ItemData ItemOID="IT.ADTTE.SRCDOM" Value="DS"/>
<ItemData ItemOID="IT.ADTTE.SRCVAR" Value="DSDECOD"/>
<ItemData ItemOID="IT.ADTTE.SRCSEQ" Value="13"/>
</ItemGroupData>
<ItemGroupData ItemGroupOID="IG.ADTTE" data:ItemGroupDataSeq="6">
<ItemData ItemOID="IT.ADTTE.STUDYID" Value="SASCSTDEMODATA"/>
<ItemData ItemOID="IT.ADTTE.USUBJID" Value="S001P006"/>
<ItemData ItemOID="IT.ADTTE.TRTP" Value="TRT B"/>
<ItemData ItemOID="IT.ADTTE.TRTPN" Value="2"/>
<ItemData ItemOID="IT.ADTTE.ADT" Value="17602"/>
<ItemData ItemOID="IT.ADTTE.AVISIT" Value="2 WEEKS"/>
<ItemData ItemOID="IT.ADTTE.PARAM" Value="Successful study completion"/>
<ItemData ItemOID="IT.ADTTE.PARAMCD" Value="STDYCOMP"/>
<ItemData ItemOID="IT.ADTTE.AVAL" Value="15"/>
<ItemData ItemOID="IT.ADTTE.STARTDT" Value="17588"/>
<ItemData ItemOID="IT.ADTTE.CNSR" Value="1"/>
<ItemData ItemOID="IT.ADTTE.EVNTDESC" Value="LOST TO FOLLOW UP"/>
<ItemData ItemOID="IT.ADTTE.SRCDOM" Value="DS"/>
<ItemData ItemOID="IT.ADTTE.SRCVAR" Value="DSDECOD"/>
<ItemData ItemOID="IT.ADTTE.SRCSEQ" Value="17"/>
</ItemGroupData>
<ItemGroupData ItemGroupOID="IG.ADTTE" data:ItemGroupDataSeq="7">
<ItemData ItemOID="IT.ADTTE.STUDYID" Value="SASCSTDEMODATA"/>
<ItemData ItemOID="IT.ADTTE.USUBJID" Value="S001P007"/>
<ItemData ItemOID="IT.ADTTE.TRTP" Value="TRT C"/>
<ItemData ItemOID="IT.ADTTE.TRTPN" Value="3"/>
<ItemData ItemOID="IT.ADTTE.ADT" Value="17632"/>
<ItemData ItemOID="IT.ADTTE.AVISIT" Value="6 WEEKS"/>
<ItemData ItemOID="IT.ADTTE.PARAM" Value="Successful study completion"/>
<ItemData ItemOID="IT.ADTTE.PARAMCD" Value="STDYCOMP"/>
<ItemData ItemOID="IT.ADTTE.AVAL" Value="43"/>
<ItemData ItemOID="IT.ADTTE.STARTDT" Value="17590"/>
<ItemData ItemOID="IT.ADTTE.CNSR" Value="0"/>
<ItemData ItemOID="IT.ADTTE.EVNTDESC" Value="COMPLETED"/>
<ItemData ItemOID="IT.ADTTE.SRCDOM" Value="DS"/>
<ItemData ItemOID="IT.ADTTE.SRCVAR" Value="DSDECOD"/>
<ItemData ItemOID="IT.ADTTE.SRCSEQ" Value="19"/>
</ItemGroupData>
<ItemGroupData ItemGroupOID="IG.ADTTE" data:ItemGroupDataSeq="8">
<ItemData ItemOID="IT.ADTTE.STUDYID" Value="SASCSTDEMODATA"/>
<ItemData ItemOID="IT.ADTTE.USUBJID" Value="S001P008"/>
<ItemData ItemOID="IT.ADTTE.TRTP" Value="TRT C"/>
<ItemData ItemOID="IT.ADTTE.TRTPN" Value="3"/>
<ItemData ItemOID="IT.ADTTE.ADT" Value="17604"/>
<ItemData ItemOID="IT.ADTTE.AVISIT" Value="2 WEEKS"/>
<ItemData ItemOID="IT.ADTTE.PARAM" Value="Successful study completion"/>
<ItemData ItemOID="IT.ADTTE.PARAMCD" Value="STDYCOMP"/>
<ItemData ItemOID="IT.ADTTE.AVAL" Value="14"/>
<ItemData ItemOID="IT.ADTTE.CNSR" Value="2"/>
<ItemData ItemOID="IT.ADTTE.EVNTDESC" Value="PHYSICIAN DECISION"/>
<ItemData ItemOID="IT.ADTTE.SRCDOM" Value="DS"/>
<ItemData ItemOID="IT.ADTTE.SRCVAR" Value="DSDECOD"/>
<ItemData ItemOID="IT.ADTTE.SRCSEQ" Value="23"/>
</ItemGroupData>
<ItemGroupData ItemGroupOID="IG.ADTTE" data:ItemGroupDataSeq="9">
<ItemData ItemOID="IT.ADTTE.STUDYID" Value="SASCSTDEMODATA"/>
<ItemData ItemOID="IT.ADTTE.USUBJID" Value="S001P009"/>
<ItemData ItemOID="IT.ADTTE.TRTP" Value="SCREEN FAILURE"/>
<ItemData ItemOID="IT.ADTTE.AVISIT" Value="RANDOMIZATION"/>
<ItemData ItemOID="IT.ADTTE.PARAM" Value="Successful study completion"/>
<ItemData ItemOID="IT.ADTTE.PARAMCD" Value="STDYCOMP"/>
<ItemData ItemOID="IT.ADTTE.SRCDOM" Value="DS"/>
<ItemData ItemOID="IT.ADTTE.SRCVAR" Value="DSDECOD"/>
</ItemGroupData>
<ItemGroupData ItemGroupOID="IG.ADTTE" data:ItemGroupDataSeq="10">
<ItemData ItemOID="IT.ADTTE.STUDYID" Value="SASCSTDEMODATA"/>
<ItemData ItemOID="IT.ADTTE.USUBJID" Value="S001P010"/>
<ItemData ItemOID="IT.ADTTE.TRTP" Value="TRT A"/>
<ItemData ItemOID="IT.ADTTE.TRTPN" Value="1"/>
<ItemData ItemOID="IT.ADTTE.ADT" Value="17637"/>
<ItemData ItemOID="IT.ADTTE.AVISIT" Value="6 WEEKS"/>
<ItemData ItemOID="IT.ADTTE.PARAM" Value="Successful study completion"/>
<ItemData ItemOID="IT.ADTTE.PARAMCD" Value="STDYCOMP"/>
<ItemData ItemOID="IT.ADTTE.AVAL" Value="43"/>
<ItemData ItemOID="IT.ADTTE.STARTDT" Value="17595"/>
<ItemData ItemOID="IT.ADTTE.CNSR" Value="0"/>
<ItemData ItemOID="IT.ADTTE.EVNTDESC" Value="COMPLETED"/>
<ItemData ItemOID="IT.ADTTE.SRCDOM" Value="DS"/>
<ItemData ItemOID="IT.ADTTE.SRCVAR" Value="DSDECOD"/>
<ItemData ItemOID="IT.ADTTE.SRCSEQ" Value="27"/>
</ItemGroupData>
<ItemGroupData ItemGroupOID="IG.ADTTE" data:ItemGroupDataSeq="11">
<ItemData ItemOID="IT.ADTTE.STUDYID" Value="SASCSTDEMODATA"/>
<ItemData ItemOID="IT.ADTTE.USUBJID" Value="S001P011"/>
<ItemData ItemOID="IT.ADTTE.TRTP" Value="TRT C"/>
<ItemData ItemOID="IT.ADTTE.TRTPN" Value="3"/>
<ItemData ItemOID="IT.ADTTE.ADT" Value="17625"/>
<ItemData ItemOID="IT.ADTTE.AVISIT" Value="4 WEEKS"/>
<ItemData ItemOID="IT.ADTTE.PARAM" Value="Successful study completion"/>
<ItemData ItemOID="IT.ADTTE.PARAMCD" Value="STDYCOMP"/>
<ItemData ItemOID="IT.ADTTE.AVAL" Value="28"/>
<ItemData ItemOID="IT.ADTTE.STARTDT" Value="17598"/>
<ItemData ItemOID="IT.ADTTE.CNSR" Value="2"/>
<ItemData ItemOID="IT.ADTTE.EVNTDESC" Value="PHYSICIAN DECISION"/>
<ItemData ItemOID="IT.ADTTE.SRCDOM" Value="DS"/>
<ItemData ItemOID="IT.ADTTE.SRCVAR" Value="DSDECOD"/>
<ItemData ItemOID="IT.ADTTE.SRCSEQ" Value="31"/>
</ItemGroupData>
<ItemGroupData ItemGroupOID="IG.ADTTE" data:ItemGroupDataSeq="12">
<ItemData ItemOID="IT.ADTTE.STUDYID" Value="SASCSTDEMODATA"/>
<ItemData ItemOID="IT.ADTTE.USUBJID" Value="S001P012"/>
<ItemData ItemOID="IT.ADTTE.TRTP" Value="TRT B"/>
<ItemData ItemOID="IT.ADTTE.TRTPN" Value="2"/>
<ItemData ItemOID="IT.ADTTE.ADT" Value="17645"/>
<ItemData ItemOID="IT.ADTTE.AVISIT" Value="6 WEEKS"/>
<ItemData ItemOID="IT.ADTTE.PARAM" Value="Successful study completion"/>
<ItemData ItemOID="IT.ADTTE.PARAMCD" Value="STDYCOMP"/>
<ItemData ItemOID="IT.ADTTE.AVAL" Value="43"/>
<ItemData ItemOID="IT.ADTTE.STARTDT" Value="17603"/>
<ItemData ItemOID="IT.ADTTE.CNSR" Value="0"/>
<ItemData ItemOID="IT.ADTTE.EVNTDESC" Value="COMPLETED"/>
<ItemData ItemOID="IT.ADTTE.SRCDOM" Value="DS"/>
<ItemData ItemOID="IT.ADTTE.SRCVAR" Value="DSDECOD"/>
<ItemData ItemOID="IT.ADTTE.SRCSEQ" Value="33"/>
</ItemGroupData>
<ItemGroupData ItemGroupOID="IG.ADTTE" data:ItemGroupDataSeq="13">
<ItemData ItemOID="IT.ADTTE.STUDYID" Value="SASCSTDEMODATA"/>
<ItemData ItemOID="IT.ADTTE.USUBJID" Value="S001P013"/>
<ItemData ItemOID="IT.ADTTE.TRTP" Value="TRT A"/>
<ItemData ItemOID="IT.ADTTE.TRTPN" Value="1"/>
<ItemData ItemOID="IT.ADTTE.ADT" Value="17645"/>
<ItemData ItemOID="IT.ADTTE.AVISIT" Value="6 WEEKS"/>
<ItemData ItemOID="IT.ADTTE.PARAM" Value="Successful study completion"/>
<ItemData ItemOID="IT.ADTTE.PARAMCD" Value="STDYCOMP"/>
<ItemData ItemOID="IT.ADTTE.AVAL" Value="43"/>
<ItemData ItemOID="IT.ADTTE.STARTDT" Value="17603"/>
<ItemData ItemOID="IT.ADTTE.CNSR" Value="0"/>
<ItemData ItemOID="IT.ADTTE.EVNTDESC" Value="COMPLETED"/>
<ItemData ItemOID="IT.ADTTE.SRCDOM" Value="DS"/>
<ItemData ItemOID="IT.ADTTE.SRCVAR" Value="DSDECOD"/>
<ItemData ItemOID="IT.ADTTE.SRCSEQ" Value="36"/>
</ItemGroupData>
<ItemGroupData ItemGroupOID="IG.ADTTE" data:ItemGroupDataSeq="14">
<ItemData ItemOID="IT.ADTTE.STUDYID" Value="SASCSTDEMODATA"/>
<ItemData ItemOID="IT.ADTTE.USUBJID" Value="S001P014"/>
<ItemData ItemOID="IT.ADTTE.TRTP" Value="TRT B"/>
<ItemData ItemOID="IT.ADTTE.TRTPN" Value="2"/>
<ItemData ItemOID="IT.ADTTE.ADT" Value="17647"/>
<ItemData ItemOID="IT.ADTTE.AVISIT" Value="6 WEEKS"/>
<ItemData ItemOID="IT.ADTTE.PARAM" Value="Successful study completion"/>
<ItemData ItemOID="IT.ADTTE.PARAMCD" Value="STDYCOMP"/>
<ItemData ItemOID="IT.ADTTE.AVAL" Value="43"/>
<ItemData ItemOID="IT.ADTTE.STARTDT" Value="17605"/>
<ItemData ItemOID="IT.ADTTE.CNSR" Value="0"/>
<ItemData ItemOID="IT.ADTTE.EVNTDESC" Value="COMPLETED"/>
<ItemData ItemOID="IT.ADTTE.SRCDOM" Value="DS"/>
<ItemData ItemOID="IT.ADTTE.SRCVAR" Value="DSDECOD"/>
<ItemData ItemOID="IT.ADTTE.SRCSEQ" Value="39"/>
</ItemGroupData>
<ItemGroupData ItemGroupOID="IG.ADTTE" data:ItemGroupDataSeq="15">
<ItemData ItemOID="IT.ADTTE.STUDYID" Value="SASCSTDEMODATA"/>
<ItemData ItemOID="IT.ADTTE.USUBJID" Value="S001P015"/>
<ItemData ItemOID="IT.ADTTE.TRTP" Value="TRT C"/>
<ItemData ItemOID="IT.ADTTE.TRTPN" Value="3"/>
<ItemData ItemOID="IT.ADTTE.ADT" Value="17624"/>
<ItemData ItemOID="IT.ADTTE.AVISIT" Value="2 WEEKS"/>
<ItemData ItemOID="IT.ADTTE.PARAM" Value="Successful study completion"/>
<ItemData ItemOID="IT.ADTTE.PARAMCD" Value="STDYCOMP"/>
<ItemData ItemOID="IT.ADTTE.AVAL" Value="14"/>
<ItemData ItemOID="IT.ADTTE.STARTDT" Value="17611"/>
<ItemData ItemOID="IT.ADTTE.CNSR" Value="2"/>
<ItemData ItemOID="IT.ADTTE.EVNTDESC" Value="PHYSICIAN DECISION"/>
<ItemData ItemOID="IT.ADTTE.SRCDOM" Value="DS"/>
<ItemData ItemOID="IT.ADTTE.SRCVAR" Value="DSDECOD"/>
<ItemData ItemOID="IT.ADTTE.SRCSEQ" Value="43"/>
</ItemGroupData>
<ItemGroupData ItemGroupOID="IG.ADTTE" data:ItemGroupDataSeq="16">
<ItemData ItemOID="IT.ADTTE.STUDYID" Value="SASCSTDEMODATA"/>
<ItemData ItemOID="IT.ADTTE.USUBJID" Value="S002P001"/>
<ItemData ItemOID="IT.ADTTE.TRTP" Value="TRT A"/>
<ItemData ItemOID="IT.ADTTE.TRTPN" Value="1"/>
<ItemData ItemOID="IT.ADTTE.ADT" Value="17640"/>
<ItemData ItemOID="IT.ADTTE.AVISIT" Value="6 WEEKS"/>
<ItemData ItemOID="IT.ADTTE.PARAM" Value="Successful study completion"/>
<ItemData ItemOID="IT.ADTTE.PARAMCD" Value="STDYCOMP"/>
<ItemData ItemOID="IT.ADTTE.AVAL" Value="43"/>
<ItemData ItemOID="IT.ADTTE.STARTDT" Value="17598"/>
<ItemData ItemOID="IT.ADTTE.CNSR" Value="0"/>
<ItemData ItemOID="IT.ADTTE.EVNTDESC" Value="COMPLETED"/>
<ItemData ItemOID="IT.ADTTE.SRCDOM" Value="DS"/>
<ItemData ItemOID="IT.ADTTE.SRCVAR" Value="DSDECOD"/>
<ItemData ItemOID="IT.ADTTE.SRCSEQ" Value="45"/>
</ItemGroupData>
<ItemGroupData ItemGroupOID="IG.ADTTE" data:ItemGroupDataSeq="17">
<ItemData ItemOID="IT.ADTTE.STUDYID" Value="SASCSTDEMODATA"/>
<ItemData ItemOID="IT.ADTTE.USUBJID" Value="S002P002"/>
<ItemData ItemOID="IT.ADTTE.TRTP" Value="XYZ"/>
<ItemData ItemOID="IT.ADTTE.ADT" Value="17640"/>
<ItemData ItemOID="IT.ADTTE.AVISIT" Value="6 WEEKS"/>
<ItemData ItemOID="IT.ADTTE.PARAM" Value="Successful study completion"/>
<ItemData ItemOID="IT.ADTTE.PARAMCD" Value="STDYCOMP"/>
<ItemData ItemOID="IT.ADTTE.AVAL" Value="43"/>
<ItemData ItemOID="IT.ADTTE.STARTDT" Value="17598"/>
<ItemData ItemOID="IT.ADTTE.CNSR" Value="0"/>
<ItemData ItemOID="IT.ADTTE.EVNTDESC" Value="COMPLETED"/>
<ItemData ItemOID="IT.ADTTE.SRCDOM" Value="DS"/>
<ItemData ItemOID="IT.ADTTE.SRCVAR" Value="DSDECOD"/>
<ItemData ItemOID="IT.ADTTE.SRCSEQ" Value="48"/>
</ItemGroupData>
<ItemGroupData ItemGroupOID="IG.ADTTE" data:ItemGroupDataSeq="18">
<ItemData ItemOID="IT.ADTTE.STUDYID" Value="SASCSTDEMODATA"/>
<ItemData ItemOID="IT.ADTTE.USUBJID" Value="S002P003"/>
<ItemData ItemOID="IT.ADTTE.TRTP" Value="TRT B"/>
<ItemData ItemOID="IT.ADTTE.TRTPN" Value="2"/>
<ItemData ItemOID="IT.ADTTE.ADT" Value="17626"/>
<ItemData ItemOID="IT.ADTTE.AVISIT" Value="4 WEEKS"/>
<ItemData ItemOID="IT.ADTTE.PARAM" Value="Successful study completion"/>
<ItemData ItemOID="IT.ADTTE.PARAMCD" Value="STDYCOMP"/>
<ItemData ItemOID="IT.ADTTE.AVAL" Value="29"/>
<ItemData ItemOID="IT.ADTTE.STARTDT" Value="17598"/>
<ItemData ItemOID="IT.ADTTE.CNSR" Value="1"/>
<ItemData ItemOID="IT.ADTTE.EVNTDESC" Value="LOST TO FOLLOW UP"/>
<ItemData ItemOID="IT.ADTTE.SRCDOM" Value="DS"/>
<ItemData ItemOID="IT.ADTTE.SRCVAR" Value="DSDECOD"/>
<ItemData ItemOID="IT.ADTTE.SRCSEQ" Value="52"/>
</ItemGroupData>
<ItemGroupData ItemGroupOID="IG.ADTTE" data:ItemGroupDataSeq="19">
<ItemData ItemOID="IT.ADTTE.STUDYID" Value="SASCSTDEMODATA"/>
<ItemData ItemOID="IT.ADTTE.USUBJID" Value="S002P004"/>
<ItemData ItemOID="IT.ADTTE.TRTP" Value="TRT B"/>
<ItemData ItemOID="IT.ADTTE.TRTPN" Value="2"/>
<ItemData ItemOID="IT.ADTTE.ADT" Value="17640"/>
<ItemData ItemOID="IT.ADTTE.AVISIT" Value="6 WEEKS"/>
<ItemData ItemOID="IT.ADTTE.PARAM" Value="Successful study completion"/>
<ItemData ItemOID="IT.ADTTE.PARAMCD" Value="STDYCOMP"/>
<ItemData ItemOID="IT.ADTTE.AVAL" Value="43"/>
<ItemData ItemOID="IT.ADTTE.STARTDT" Value="17598"/>
<ItemData ItemOID="IT.ADTTE.CNSR" Value="0"/>
<ItemData ItemOID="IT.ADTTE.EVNTDESC" Value="COMPLETED"/>
<ItemData ItemOID="IT.ADTTE.SRCDOM" Value="DS"/>
<ItemData ItemOID="IT.ADTTE.SRCVAR" Value="DSDECOD"/>
<ItemData ItemOID="IT.ADTTE.SRCSEQ" Value="54"/>
</ItemGroupData>
<ItemGroupData ItemGroupOID="IG.ADTTE" data:ItemGroupDataSeq="20">
<ItemData ItemOID="IT.ADTTE.STUDYID" Value="SASCSTDEMODATA"/>
<ItemData ItemOID="IT.ADTTE.USUBJID" Value="S002P005"/>
<ItemData ItemOID="IT.ADTTE.TRTP" Value="TRT A"/>
<ItemData ItemOID="IT.ADTTE.TRTPN" Value="1"/>
<ItemData ItemOID="IT.ADTTE.ADT" Value="17629"/>
<ItemData ItemOID="IT.ADTTE.AVISIT" Value="4 WEEKS"/>
<ItemData ItemOID="IT.ADTTE.PARAM" Value="Successful study completion"/>
<ItemData ItemOID="IT.ADTTE.PARAMCD" Value="STDYCOMP"/>
<ItemData ItemOID="IT.ADTTE.AVAL" Value="29"/>
<ItemData ItemOID="IT.ADTTE.STARTDT" Value="17601"/>
<ItemData ItemOID="IT.ADTTE.CNSR" Value="1"/>
<ItemData ItemOID="IT.ADTTE.EVNTDESC" Value="LOST TO FOLLOW UP"/>
<ItemData ItemOID="IT.ADTTE.SRCDOM" Value="DS"/>
<ItemData ItemOID="IT.ADTTE.SRCVAR" Value="DSDECOD"/>
<ItemData ItemOID="IT.ADTTE.SRCSEQ" Value="58"/>
</ItemGroupData>
<ItemGroupData ItemGroupOID="IG.ADTTE" data:ItemGroupDataSeq="21">
<ItemData ItemOID="IT.ADTTE.STUDYID" Value="SASCSTDEMODATA"/>
<ItemData ItemOID="IT.ADTTE.USUBJID" Value="S002P006"/>
<ItemData ItemOID="IT.ADTTE.TRTP" Value="TRT C"/>
<ItemData ItemOID="IT.ADTTE.TRTPN" Value="3"/>
<ItemData ItemOID="IT.ADTTE.ADT" Value="17645"/>
<ItemData ItemOID="IT.ADTTE.AVISIT" Value="6 WEEKS"/>
<ItemData ItemOID="IT.ADTTE.PARAM" Value="Successful study completion"/>
<ItemData ItemOID="IT.ADTTE.PARAMCD" Value="STDYCOMP"/>
<ItemData ItemOID="IT.ADTTE.AVAL" Value="43"/>
<ItemData ItemOID="IT.ADTTE.STARTDT" Value="17603"/>
<ItemData ItemOID="IT.ADTTE.CNSR" Value="0"/>
<ItemData ItemOID="IT.ADTTE.EVNTDESC" Value="COMPLETED"/>
<ItemData ItemOID="IT.ADTTE.SRCDOM" Value="DS"/>
<ItemData ItemOID="IT.ADTTE.SRCVAR" Value="DSDECOD"/>
<ItemData ItemOID="IT.ADTTE.SRCSEQ" Value="60"/>
</ItemGroupData>
<ItemGroupData ItemGroupOID="IG.ADTTE" data:ItemGroupDataSeq="22">
<ItemData ItemOID="IT.ADTTE.STUDYID" Value="SASCSTDEMODATA"/>
<ItemData ItemOID="IT.ADTTE.USUBJID" Value="S002P007"/>
<ItemData ItemOID="IT.ADTTE.TRTP" Value="TRT A"/>
<ItemData ItemOID="IT.ADTTE.TRTPN" Value="1"/>
<ItemData ItemOID="IT.ADTTE.ADT" Value="17632"/>
<ItemData ItemOID="IT.ADTTE.AVISIT" Value="4 WEEKS"/>
<ItemData ItemOID="IT.ADTTE.PARAM" Value="Successful study completion"/>
<ItemData ItemOID="IT.ADTTE.PARAMCD" Value="STDYCOMP"/>
<ItemData ItemOID="IT.ADTTE.AVAL" Value="29"/>
<ItemData ItemOID="IT.ADTTE.STARTDT" Value="17604"/>
<ItemData ItemOID="IT.ADTTE.CNSR" Value="1"/>
<ItemData ItemOID="IT.ADTTE.EVNTDESC" Value="LOST TO FOLLOW UP"/>
<ItemData ItemOID="IT.ADTTE.SRCDOM" Value="DS"/>
<ItemData ItemOID="IT.ADTTE.SRCVAR" Value="DSDECOD"/>
<ItemData ItemOID="IT.ADTTE.SRCSEQ" Value="64"/>
</ItemGroupData>
<ItemGroupData ItemGroupOID="IG.ADTTE" data:ItemGroupDataSeq="23">
<ItemData ItemOID="IT.ADTTE.STUDYID" Value="SASCSTDEMODATA"/>
<ItemData ItemOID="IT.ADTTE.USUBJID" Value="S002P008"/>
<ItemData ItemOID="IT.ADTTE.TRTP" Value="TRT C"/>
<ItemData ItemOID="IT.ADTTE.TRTPN" Value="3"/>
<ItemData ItemOID="IT.ADTTE.ADT" Value="17637"/>
<ItemData ItemOID="IT.ADTTE.AVISIT" Value="4 WEEKS"/>
<ItemData ItemOID="IT.ADTTE.PARAM" Value="Successful study completion"/>
<ItemData ItemOID="IT.ADTTE.PARAMCD" Value="STDYCOMP"/>
<ItemData ItemOID="IT.ADTTE.AVAL" Value="30"/>
<ItemData ItemOID="IT.ADTTE.STARTDT" Value="17608"/>
<ItemData ItemOID="IT.ADTTE.CNSR" Value="1"/>
<ItemData ItemOID="IT.ADTTE.EVNTDESC" Value="LOST TO FOLLOW UP"/>
<ItemData ItemOID="IT.ADTTE.SRCDOM" Value="DS"/>
<ItemData ItemOID="IT.ADTTE.SRCVAR" Value="DSDECOD"/>
<ItemData ItemOID="IT.ADTTE.SRCSEQ" Value="67"/>
</ItemGroupData>
<ItemGroupData ItemGroupOID="IG.ADTTE" data:ItemGroupDataSeq="24">
<ItemData ItemOID="IT.ADTTE.STUDYID" Value="SASCSTDEMODATA"/>
<ItemData ItemOID="IT.ADTTE.USUBJID" Value="S002P009"/>
<ItemData ItemOID="IT.ADTTE.TRTP" Value="TRT C"/>
<ItemData ItemOID="IT.ADTTE.TRTPN" Value="3"/>
<ItemData ItemOID="IT.ADTTE.ADT" Value="17638"/>
<ItemData ItemOID="IT.ADTTE.AVISIT" Value="4 WEEKS"/>
<ItemData ItemOID="IT.ADTTE.PARAM" Value="Successful study completion"/>
<ItemData ItemOID="IT.ADTTE.PARAMCD" Value="STDYCOMP"/>
<ItemData ItemOID="IT.ADTTE.AVAL" Value="30"/>
<ItemData ItemOID="IT.ADTTE.STARTDT" Value="17609"/>
<ItemData ItemOID="IT.ADTTE.CNSR" Value="2"/>
<ItemData ItemOID="IT.ADTTE.EVNTDESC" Value="PHYSICIAN DECISION"/>
<ItemData ItemOID="IT.ADTTE.SRCDOM" Value="DS"/>
<ItemData ItemOID="IT.ADTTE.SRCVAR" Value="DSDECOD"/>
<ItemData ItemOID="IT.ADTTE.SRCSEQ" Value="70"/>
</ItemGroupData>
<ItemGroupData ItemGroupOID="IG.ADTTE" data:ItemGroupDataSeq="25">
<ItemData ItemOID="IT.ADTTE.STUDYID" Value="SASCSTDEMODATA"/>
<ItemData ItemOID="IT.ADTTE.USUBJID" Value="S002P010"/>
<ItemData ItemOID="IT.ADTTE.TRTP" Value="TRT B"/>
<ItemData ItemOID="IT.ADTTE.TRTPN" Value="2"/>
<ItemData ItemOID="IT.ADTTE.ADT" Value="17653"/>
<ItemData ItemOID="IT.ADTTE.AVISIT" Value="6 WEEKS"/>
<ItemData ItemOID="IT.ADTTE.PARAM" Value="Successful study completion"/>
<ItemData ItemOID="IT.ADTTE.PARAMCD" Value="STDYCOMP"/>
<ItemData ItemOID="IT.ADTTE.AVAL" Value="43"/>
<ItemData ItemOID="IT.ADTTE.STARTDT" Value="17611"/>
<ItemData ItemOID="IT.ADTTE.CNSR" Value="0"/>
<ItemData ItemOID="IT.ADTTE.EVNTDESC" Value="COMPLETED"/>
<ItemData ItemOID="IT.ADTTE.SRCDOM" Value="DS"/>
<ItemData ItemOID="IT.ADTTE.SRCVAR" Value="DSDECOD"/>
<ItemData ItemOID="IT.ADTTE.SRCSEQ" Value="72"/>
</ItemGroupData>
<ItemGroupData ItemGroupOID="IG.ADTTE" data:ItemGroupDataSeq="26">
<ItemData ItemOID="IT.ADTTE.STUDYID" Value="SASCSTDEMODATA"/>
<ItemData ItemOID="IT.ADTTE.USUBJID" Value="S002P011"/>
<ItemData ItemOID="IT.ADTTE.TRTP" Value="TRT A"/>
<ItemData ItemOID="IT.ADTTE.TRTPN" Value="1"/>
<ItemData ItemOID="IT.ADTTE.ADT" Value="17653"/>
<ItemData ItemOID="IT.ADTTE.AVISIT" Value="6 WEEKS"/>
<ItemData ItemOID="IT.ADTTE.PARAM" Value="Successful study completion"/>
<ItemData ItemOID="IT.ADTTE.PARAMCD" Value="STDYCOMP"/>
<ItemData ItemOID="IT.ADTTE.AVAL" Value="43"/>
<ItemData ItemOID="IT.ADTTE.STARTDT" Value="17611"/>
<ItemData ItemOID="IT.ADTTE.CNSR" Value="0"/>
<ItemData ItemOID="IT.ADTTE.EVNTDESC" Value="COMPLETED"/>
<ItemData ItemOID="IT.ADTTE.SRCDOM" Value="DS"/>
<ItemData ItemOID="IT.ADTTE.SRCVAR" Value="DSDECOD"/>
<ItemData ItemOID="IT.ADTTE.SRCSEQ" Value="75"/>
</ItemGroupData>
<ItemGroupData ItemGroupOID="IG.ADTTE" data:ItemGroupDataSeq="27">
<ItemData ItemOID="IT.ADTTE.STUDYID" Value="SASCSTDEMODATA"/>
<ItemData ItemOID="IT.ADTTE.USUBJID" Value="S002P012"/>
<ItemData ItemOID="IT.ADTTE.TRTP" Value="TRT B"/>
<ItemData ItemOID="IT.ADTTE.TRTPN" Value="2"/>
<ItemData ItemOID="IT.ADTTE.ADT" Value="17654"/>
<ItemData ItemOID="IT.ADTTE.AVISIT" Value="6 WEEKS"/>
<ItemData ItemOID="IT.ADTTE.PARAM" Value="Successful study completion"/>
<ItemData ItemOID="IT.ADTTE.PARAMCD" Value="STDYCOMP"/>
<ItemData ItemOID="IT.ADTTE.AVAL" Value="43"/>
<ItemData ItemOID="IT.ADTTE.STARTDT" Value="17612"/>
<ItemData ItemOID="IT.ADTTE.CNSR" Value="0"/>
<ItemData ItemOID="IT.ADTTE.EVNTDESC" Value="COMPLETED"/>
<ItemData ItemOID="IT.ADTTE.SRCDOM" Value="DS"/>
<ItemData ItemOID="IT.ADTTE.SRCVAR" Value="DSDECOD"/>
<ItemData ItemOID="IT.ADTTE.SRCSEQ" Value="78"/>
</ItemGroupData>
<ItemGroupData ItemGroupOID="IG.ADTTE" data:ItemGroupDataSeq="28">
<ItemData ItemOID="IT.ADTTE.STUDYID" Value="SASCSTDEMODATA"/>
<ItemData ItemOID="IT.ADTTE.USUBJID" Value="S002P013"/>
<ItemData ItemOID="IT.ADTTE.TRTP" Value="TRT B"/>
<ItemData ItemOID="IT.ADTTE.TRTPN" Value="2"/>
<ItemData ItemOID="IT.ADTTE.ADT" Value="17658"/>
<ItemData ItemOID="IT.ADTTE.AVISIT" Value="6 WEEKS"/>
<ItemData ItemOID="IT.ADTTE.PARAM" Value="Successful study completion"/>
<ItemData ItemOID="IT.ADTTE.PARAMCD" Value="STDYCOMP"/>
<ItemData ItemOID="IT.ADTTE.AVAL" Value="44"/>
<ItemData ItemOID="IT.ADTTE.STARTDT" Value="17615"/>
<ItemData ItemOID="IT.ADTTE.CNSR" Value="0"/>
<ItemData ItemOID="IT.ADTTE.EVNTDESC" Value="COMPLETED"/>
<ItemData ItemOID="IT.ADTTE.SRCDOM" Value="DS"/>
<ItemData ItemOID="IT.ADTTE.SRCVAR" Value="DSDECOD"/>
<ItemData ItemOID="IT.ADTTE.SRCSEQ" Value="81"/>
</ItemGroupData>
<ItemGroupData ItemGroupOID="IG.ADTTE" data:ItemGroupDataSeq="29">
<ItemData ItemOID="IT.ADTTE.STUDYID" Value="SASCSTDEMODATA"/>
<ItemData ItemOID="IT.ADTTE.USUBJID" Value="S002P014"/>
<ItemData ItemOID="IT.ADTTE.TRTP" Value="TRT C"/>
<ItemData ItemOID="IT.ADTTE.TRTPN" Value="3"/>
<ItemData ItemOID="IT.ADTTE.ADT" Value="17630"/>
<ItemData ItemOID="IT.ADTTE.AVISIT" Value="2 WEEKS"/>
<ItemData ItemOID="IT.ADTTE.PARAM" Value="Successful study completion"/>
<ItemData ItemOID="IT.ADTTE.PARAMCD" Value="STDYCOMP"/>
<ItemData ItemOID="IT.ADTTE.AVAL" Value="16"/>
<ItemData ItemOID="IT.ADTTE.STARTDT" Value="17615"/>
<ItemData ItemOID="IT.ADTTE.CNSR" Value="1"/>
<ItemData ItemOID="IT.ADTTE.EVNTDESC" Value="LOST TO FOLLOW UP"/>
<ItemData ItemOID="IT.ADTTE.SRCDOM" Value="DS"/>
<ItemData ItemOID="IT.ADTTE.SRCVAR" Value="DSDECOD"/>
<ItemData ItemOID="IT.ADTTE.SRCSEQ" Value="85"/>
</ItemGroupData>
<ItemGroupData ItemGroupOID="IG.ADTTE" data:ItemGroupDataSeq="30">
<ItemData ItemOID="IT.ADTTE.STUDYID" Value="SASCSTDEMODATA"/>
<ItemData ItemOID="IT.ADTTE.USUBJID" Value="S002P015"/>
<ItemData ItemOID="IT.ADTTE.TRTP" Value="TRT C"/>
<ItemData ItemOID="IT.ADTTE.TRTPN" Value="3"/>
<ItemData ItemOID="IT.ADTTE.ADT" Value="17644"/>
<ItemData ItemOID="IT.ADTTE.AVISIT" Value="4 WEEKS"/>
<ItemData ItemOID="IT.ADTTE.PARAM" Value="Successful study completion"/>
<ItemData ItemOID="IT.ADTTE.PARAMCD" Value="STDYCOMP"/>
<ItemData ItemOID="IT.ADTTE.AVAL" Value="29"/>
<ItemData ItemOID="IT.ADTTE.STARTDT" Value="17616"/>
<ItemData ItemOID="IT.ADTTE.CNSR" Value="1"/>
<ItemData ItemOID="IT.ADTTE.EVNTDESC" Value="LOST TO FOLLOW UP"/>
<ItemData ItemOID="IT.ADTTE.SRCDOM" Value="DS"/>
<ItemData ItemOID="IT.ADTTE.SRCVAR" Value="DSDECOD"/>
<ItemData ItemOID="IT.ADTTE.SRCSEQ" Value="88"/>
</ItemGroupData>
<ItemGroupData ItemGroupOID="IG.ADTTE" data:ItemGroupDataSeq="31">
<ItemData ItemOID="IT.ADTTE.STUDYID" Value="SASCSTDEMODATA"/>
<ItemData ItemOID="IT.ADTTE.USUBJID" Value="S002P016"/>
<ItemData ItemOID="IT.ADTTE.TRTP" Value="TRT B"/>
<ItemData ItemOID="IT.ADTTE.TRTPN" Value="2"/>
<ItemData ItemOID="IT.ADTTE.ADT" Value="17659"/>
<ItemData ItemOID="IT.ADTTE.AVISIT" Value="6 WEEKS"/>
<ItemData ItemOID="IT.ADTTE.PARAM" Value="Successful study completion"/>
<ItemData ItemOID="IT.ADTTE.PARAMCD" Value="STDYCOMP"/>
<ItemData ItemOID="IT.ADTTE.AVAL" Value="42"/>
<ItemData ItemOID="IT.ADTTE.STARTDT" Value="17618"/>
<ItemData ItemOID="IT.ADTTE.CNSR" Value="0"/>
<ItemData ItemOID="IT.ADTTE.EVNTDESC" Value="COMPLETED"/>
<ItemData ItemOID="IT.ADTTE.SRCDOM" Value="DS"/>
<ItemData ItemOID="IT.ADTTE.SRCVAR" Value="DSDECOD"/>
<ItemData ItemOID="IT.ADTTE.SRCSEQ" Value="90"/>
</ItemGroupData>
<ItemGroupData ItemGroupOID="IG.ADTTE" data:ItemGroupDataSeq="32">
<ItemData ItemOID="IT.ADTTE.STUDYID" Value="SASCSTDEMODATA"/>
<ItemData ItemOID="IT.ADTTE.USUBJID" Value="S002P017"/>
<ItemData ItemOID="IT.ADTTE.TRTP" Value="TRT B"/>
<ItemData ItemOID="IT.ADTTE.TRTPN" Value="2"/>
<ItemData ItemOID="IT.ADTTE.ADT" Value="17631"/>
<ItemData ItemOID="IT.ADTTE.AVISIT" Value="2 WEEKS"/>
<ItemData ItemOID="IT.ADTTE.PARAM" Value="Successful study completion"/>
<ItemData ItemOID="IT.ADTTE.PARAMCD" Value="STDYCOMP"/>
<ItemData ItemOID="IT.ADTTE.AVAL" Value="14"/>
<ItemData ItemOID="IT.ADTTE.STARTDT" Value="17618"/>
<ItemData ItemOID="IT.ADTTE.CNSR" Value="1"/>
<ItemData ItemOID="IT.ADTTE.EVNTDESC" Value="LOST TO FOLLOW UP"/>
<ItemData ItemOID="IT.ADTTE.SRCDOM" Value="DS"/>
<ItemData ItemOID="IT.ADTTE.SRCVAR" Value="DSDECOD"/>
<ItemData ItemOID="IT.ADTTE.SRCSEQ" Value="94"/>
</ItemGroupData>
<ItemGroupData ItemGroupOID="IG.ADTTE" data:ItemGroupDataSeq="33">
<ItemData ItemOID="IT.ADTTE.STUDYID" Value="SASCSTDEMODATA"/>
<ItemData ItemOID="IT.ADTTE.USUBJID" Value="S002P018"/>
<ItemData ItemOID="IT.ADTTE.TRTP" Value="TRT A"/>
<ItemData ItemOID="IT.ADTTE.TRTPN" Value="1"/>
<ItemData ItemOID="IT.ADTTE.ADT" Value="17660"/>
<ItemData ItemOID="IT.ADTTE.AVISIT" Value="6 WEEKS"/>
<ItemData ItemOID="IT.ADTTE.PARAM" Value="Successful study completion"/>
<ItemData ItemOID="IT.ADTTE.PARAMCD" Value="STDYCOMP"/>
<ItemData ItemOID="IT.ADTTE.AVAL" Value="43"/>
<ItemData ItemOID="IT.ADTTE.STARTDT" Value="17618"/>
<ItemData ItemOID="IT.ADTTE.CNSR" Value="0"/>
<ItemData ItemOID="IT.ADTTE.EVNTDESC" Value="COMPLETED"/>
<ItemData ItemOID="IT.ADTTE.SRCDOM" Value="DS"/>
<ItemData ItemOID="IT.ADTTE.SRCVAR" Value="DSDECOD"/>
<ItemData ItemOID="IT.ADTTE.SRCSEQ" Value="96"/>
</ItemGroupData>
<ItemGroupData ItemGroupOID="IG.ADTTE" data:ItemGroupDataSeq="34">
<ItemData ItemOID="IT.ADTTE.STUDYID" Value="SASCSTDEMODATA"/>
<ItemData ItemOID="IT.ADTTE.USUBJID" Value="S002P019"/>
<ItemData ItemOID="IT.ADTTE.TRTP" Value="TRT B"/>
<ItemData ItemOID="IT.ADTTE.TRTPN" Value="2"/>
<ItemData ItemOID="IT.ADTTE.ADT" Value="17661"/>
<ItemData ItemOID="IT.ADTTE.AVISIT" Value="6 WEEKS"/>
<ItemData ItemOID="IT.ADTTE.PARAM" Value="Successful study completion"/>
<ItemData ItemOID="IT.ADTTE.PARAMCD" Value="STDYCOMP"/>
<ItemData ItemOID="IT.ADTTE.AVAL" Value="43"/>
<ItemData ItemOID="IT.ADTTE.STARTDT" Value="17619"/>
<ItemData ItemOID="IT.ADTTE.CNSR" Value="0"/>
<ItemData ItemOID="IT.ADTTE.EVNTDESC" Value="COMPLETED"/>
<ItemData ItemOID="IT.ADTTE.SRCDOM" Value="DS"/>
<ItemData ItemOID="IT.ADTTE.SRCVAR" Value="DSDECOD"/>
<ItemData ItemOID="IT.ADTTE.SRCSEQ" Value="99"/>
</ItemGroupData>
<ItemGroupData ItemGroupOID="IG.ADTTE" data:ItemGroupDataSeq="35">
<ItemData ItemOID="IT.ADTTE.STUDYID" Value="SASCSTDEMODATA"/>
<ItemData ItemOID="IT.ADTTE.USUBJID" Value="S002P020"/>
<ItemData ItemOID="IT.ADTTE.TRTP" Value="TRT C"/>
<ItemData ItemOID="IT.ADTTE.TRTPN" Value="3"/>
<ItemData ItemOID="IT.ADTTE.ADT" Value="17638"/>
<ItemData ItemOID="IT.ADTTE.AVISIT" Value="2 WEEKS"/>
<ItemData ItemOID="IT.ADTTE.PARAM" Value="Successful study completion"/>
<ItemData ItemOID="IT.ADTTE.PARAMCD" Value="STDYCOMP"/>
<ItemData ItemOID="IT.ADTTE.AVAL" Value="15"/>
<ItemData ItemOID="IT.ADTTE.STARTDT" Value="17624"/>
<ItemData ItemOID="IT.ADTTE.CNSR" Value="1"/>
<ItemData ItemOID="IT.ADTTE.EVNTDESC" Value="LOST TO FOLLOW UP"/>
<ItemData ItemOID="IT.ADTTE.SRCDOM" Value="DS"/>
<ItemData ItemOID="IT.ADTTE.SRCVAR" Value="DSDECOD"/>
<ItemData ItemOID="IT.ADTTE.SRCSEQ" Value="103"/>
</ItemGroupData>
<ItemGroupData ItemGroupOID="IG.ADTTE" data:ItemGroupDataSeq="36">
<ItemData ItemOID="IT.ADTTE.STUDYID" Value="SASCSTDEMODATA"/>
<ItemData ItemOID="IT.ADTTE.USUBJID" Value="S002P021"/>
<ItemData ItemOID="IT.ADTTE.TRTP" Value="TRT A"/>
<ItemData ItemOID="IT.ADTTE.TRTPN" Value="1"/>
<ItemData ItemOID="IT.ADTTE.ADT" Value="17640"/>
<ItemData ItemOID="IT.ADTTE.AVISIT" Value="2 WEEKS"/>
<ItemData ItemOID="IT.ADTTE.PARAM" Value="Successful study completion"/>
<ItemData ItemOID="IT.ADTTE.PARAMCD" Value="STDYCOMP"/>
<ItemData ItemOID="IT.ADTTE.AVAL" Value="15"/>
<ItemData ItemOID="IT.ADTTE.STARTDT" Value="17626"/>
<ItemData ItemOID="IT.ADTTE.CNSR" Value="1"/>
<ItemData ItemOID="IT.ADTTE.EVNTDESC" Value="LOST TO FOLLOW UP"/>
<ItemData ItemOID="IT.ADTTE.SRCDOM" Value="DS"/>
<ItemData ItemOID="IT.ADTTE.SRCVAR" Value="DSDECOD"/>
<ItemData ItemOID="IT.ADTTE.SRCSEQ" Value="106"/>
</ItemGroupData>
<ItemGroupData ItemGroupOID="IG.ADTTE" data:ItemGroupDataSeq="37">
<ItemData ItemOID="IT.ADTTE.STUDYID" Value="SASCSTDEMODATA"/>
<ItemData ItemOID="IT.ADTTE.USUBJID" Value="S002P022"/>
<ItemData ItemOID="IT.ADTTE.TRTP" Value="TRT A"/>
<ItemData ItemOID="IT.ADTTE.TRTPN" Value="1"/>
<ItemData ItemOID="IT.ADTTE.ADT" Value="17668"/>
<ItemData ItemOID="IT.ADTTE.AVISIT" Value="6 WEEKS"/>
<ItemData ItemOID="IT.ADTTE.PARAM" Value="Successful study completion"/>
<ItemData ItemOID="IT.ADTTE.PARAMCD" Value="STDYCOMP"/>
<ItemData ItemOID="IT.ADTTE.AVAL" Value="43"/>
<ItemData ItemOID="IT.ADTTE.STARTDT" Value="17626"/>
<ItemData ItemOID="IT.ADTTE.CNSR" Value="0"/>
<ItemData ItemOID="IT.ADTTE.EVNTDESC" Value="COMPLETED"/>
<ItemData ItemOID="IT.ADTTE.SRCDOM" Value="DS"/>
<ItemData ItemOID="IT.ADTTE.SRCVAR" Value="DSDECOD"/>
<ItemData ItemOID="IT.ADTTE.SRCSEQ" Value="108"/>
</ItemGroupData>
<ItemGroupData ItemGroupOID="IG.ADTTE" data:ItemGroupDataSeq="38">
<ItemData ItemOID="IT.ADTTE.STUDYID" Value="SASCSTDEMODATA"/>
<ItemData ItemOID="IT.ADTTE.USUBJID" Value="S002P023"/>
<ItemData ItemOID="IT.ADTTE.TRTP" Value="TRT B"/>
<ItemData ItemOID="IT.ADTTE.TRTPN" Value="2"/>
<ItemData ItemOID="IT.ADTTE.ADT" Value="17657"/>
<ItemData ItemOID="IT.ADTTE.AVISIT" Value="4 WEEKS"/>
<ItemData ItemOID="IT.ADTTE.PARAM" Value="Successful study completion"/>
<ItemData ItemOID="IT.ADTTE.PARAMCD" Value="STDYCOMP"/>
<ItemData ItemOID="IT.ADTTE.AVAL" Value="29"/>
<ItemData ItemOID="IT.ADTTE.STARTDT" Value="17629"/>
<ItemData ItemOID="IT.ADTTE.CNSR" Value="1"/>
<ItemData ItemOID="IT.ADTTE.EVNTDESC" Value="LOST TO FOLLOW UP"/>
<ItemData ItemOID="IT.ADTTE.SRCDOM" Value="DS"/>
<ItemData ItemOID="IT.ADTTE.SRCVAR" Value="DSDECOD"/>
<ItemData ItemOID="IT.ADTTE.SRCSEQ" Value="112"/>
</ItemGroupData>
<ItemGroupData ItemGroupOID="IG.ADTTE" data:ItemGroupDataSeq="39">
<ItemData ItemOID="IT.ADTTE.STUDYID" Value="SASCSTDEMODATA"/>
<ItemData ItemOID="IT.ADTTE.USUBJID" Value="S002P024"/>
<ItemData ItemOID="IT.ADTTE.TRTP" Value="TRT A"/>
<ItemData ItemOID="IT.ADTTE.TRTPN" Value="1"/>
<ItemData ItemOID="IT.ADTTE.ADT" Value="17673"/>
<ItemData ItemOID="IT.ADTTE.AVISIT" Value="6 WEEKS"/>
<ItemData ItemOID="IT.ADTTE.PARAM" Value="Successful study completion"/>
<ItemData ItemOID="IT.ADTTE.PARAMCD" Value="STDYCOMP"/>
<ItemData ItemOID="IT.ADTTE.AVAL" Value="43"/>
<ItemData ItemOID="IT.ADTTE.STARTDT" Value="17631"/>
<ItemData ItemOID="IT.ADTTE.CNSR" Value="0"/>
<ItemData ItemOID="IT.ADTTE.EVNTDESC" Value="COMPLETED"/>
<ItemData ItemOID="IT.ADTTE.SRCDOM" Value="DS"/>
<ItemData ItemOID="IT.ADTTE.SRCVAR" Value="DSDECOD"/>
<ItemData ItemOID="IT.ADTTE.SRCSEQ" Value="114"/>
</ItemGroupData>
<ItemGroupData ItemGroupOID="IG.ADTTE" data:ItemGroupDataSeq="40">
<ItemData ItemOID="IT.ADTTE.STUDYID" Value="SASCSTDEMODATA"/>
<ItemData ItemOID="IT.ADTTE.USUBJID" Value="S002P025"/>
<ItemData ItemOID="IT.ADTTE.TRTP" Value="TRT C"/>
<ItemData ItemOID="IT.ADTTE.TRTPN" Value="3"/>
<ItemData ItemOID="IT.ADTTE.ADT" Value="17679"/>
<ItemData ItemOID="IT.ADTTE.AVISIT" Value="6 WEEKS"/>
<ItemData ItemOID="IT.ADTTE.PARAM" Value="Successful study completion"/>
<ItemData ItemOID="IT.ADTTE.PARAMCD" Value="STDYCOMP"/>
<ItemData ItemOID="IT.ADTTE.AVAL" Value="43"/>
<ItemData ItemOID="IT.ADTTE.STARTDT" Value="17637"/>
<ItemData ItemOID="IT.ADTTE.CNSR" Value="0"/>
<ItemData ItemOID="IT.ADTTE.EVNTDESC" Value="COMPLETED"/>
<ItemData ItemOID="IT.ADTTE.SRCDOM" Value="DS"/>
<ItemData ItemOID="IT.ADTTE.SRCVAR" Value="DSDECOD"/>
<ItemData ItemOID="IT.ADTTE.SRCSEQ" Value="117"/>
</ItemGroupData>
<ItemGroupData ItemGroupOID="IG.ADTTE" data:ItemGroupDataSeq="41">
<ItemData ItemOID="IT.ADTTE.STUDYID" Value="SASCSTDEMODATA"/>
<ItemData ItemOID="IT.ADTTE.USUBJID" Value="S002P026"/>
<ItemData ItemOID="IT.ADTTE.TRTP" Value="TRT C"/>
<ItemData ItemOID="IT.ADTTE.TRTPN" Value="3"/>
<ItemData ItemOID="IT.ADTTE.ADT" Value="17685"/>
<ItemData ItemOID="IT.ADTTE.AVISIT" Value="6 WEEKS"/>
<ItemData ItemOID="IT.ADTTE.PARAM" Value="Successful study completion"/>
<ItemData ItemOID="IT.ADTTE.PARAMCD" Value="STDYCOMP"/>
<ItemData ItemOID="IT.ADTTE.AVAL" Value="43"/>
<ItemData ItemOID="IT.ADTTE.STARTDT" Value="17643"/>
<ItemData ItemOID="IT.ADTTE.CNSR" Value="0"/>
<ItemData ItemOID="IT.ADTTE.EVNTDESC" Value="COMPLETED"/>
<ItemData ItemOID="IT.ADTTE.SRCDOM" Value="DS"/>
<ItemData ItemOID="IT.ADTTE.SRCVAR" Value="DSDECOD"/>
<ItemData ItemOID="IT.ADTTE.SRCSEQ" Value="120"/>
</ItemGroupData>
<ItemGroupData ItemGroupOID="IG.ADTTE" data:ItemGroupDataSeq="42">
<ItemData ItemOID="IT.ADTTE.STUDYID" Value="SASCSTDEMODATA"/>
<ItemData ItemOID="IT.ADTTE.USUBJID" Value="S002P027"/>
<ItemData ItemOID="IT.ADTTE.TRTP" Value="TRT C"/>
<ItemData ItemOID="IT.ADTTE.TRTPN" Value="3"/>
<ItemData ItemOID="IT.ADTTE.ADT" Value="17673"/>
<ItemData ItemOID="IT.ADTTE.AVISIT" Value="4 WEEKS"/>
<ItemData ItemOID="IT.ADTTE.PARAM" Value="Successful study completion"/>
<ItemData ItemOID="IT.ADTTE.PARAMCD" Value="STDYCOMP"/>
<ItemData ItemOID="IT.ADTTE.AVAL" Value="29"/>
<ItemData ItemOID="IT.ADTTE.STARTDT" Value="17645"/>
<ItemData ItemOID="IT.ADTTE.CNSR" Value="1"/>
<ItemData ItemOID="IT.ADTTE.EVNTDESC" Value="LOST TO FOLLOW UP"/>
<ItemData ItemOID="IT.ADTTE.SRCDOM" Value="DS"/>
<ItemData ItemOID="IT.ADTTE.SRCVAR" Value="DSDECOD"/>
<ItemData ItemOID="IT.ADTTE.SRCSEQ" Value="124"/>
</ItemGroupData>
<ItemGroupData ItemGroupOID="IG.ADTTE" data:ItemGroupDataSeq="43">
<ItemData ItemOID="IT.ADTTE.STUDYID" Value="SASCSTDEMODATA"/>
<ItemData ItemOID="IT.ADTTE.USUBJID" Value="S002P028"/>
<ItemData ItemOID="IT.ADTTE.TRTP" Value="TRT C"/>
<ItemData ItemOID="IT.ADTTE.TRTPN" Value="3"/>
<ItemData ItemOID="IT.ADTTE.ADT" Value="17675"/>
<ItemData ItemOID="IT.ADTTE.AVISIT" Value="4 WEEKS"/>
<ItemData ItemOID="IT.ADTTE.PARAM" Value="Successful study completion"/>
<ItemData ItemOID="IT.ADTTE.PARAMCD" Value="STDYCOMP"/>
<ItemData ItemOID="IT.ADTTE.AVAL" Value="29"/>
<ItemData ItemOID="IT.ADTTE.STARTDT" Value="17647"/>
<ItemData ItemOID="IT.ADTTE.CNSR" Value="1"/>
<ItemData ItemOID="IT.ADTTE.EVNTDESC" Value="LOST TO FOLLOW UP"/>
<ItemData ItemOID="IT.ADTTE.SRCDOM" Value="DS"/>
<ItemData ItemOID="IT.ADTTE.SRCVAR" Value="DSDECOD"/>
<ItemData ItemOID="IT.ADTTE.SRCSEQ" Value="127"/>
</ItemGroupData>
<ItemGroupData ItemGroupOID="IG.ADTTE" data:ItemGroupDataSeq="44">
<ItemData ItemOID="IT.ADTTE.STUDYID" Value="SASCSTDEMODATA"/>
<ItemData ItemOID="IT.ADTTE.USUBJID" Value="S002P029"/>
<ItemData ItemOID="IT.ADTTE.TRTP" Value="SCREEN FAILURE"/>
<ItemData ItemOID="IT.ADTTE.AVISIT" Value="RANDOMIZATION"/>
<ItemData ItemOID="IT.ADTTE.PARAM" Value="Successful study completion"/>
<ItemData ItemOID="IT.ADTTE.PARAMCD" Value="STDYCOMP"/>
<ItemData ItemOID="IT.ADTTE.STARTDT" Value="17647"/>
<ItemData ItemOID="IT.ADTTE.SRCDOM" Value="DS"/>
<ItemData ItemOID="IT.ADTTE.SRCVAR" Value="DSDECOD"/>
</ItemGroupData>
<ItemGroupData ItemGroupOID="IG.ADTTE" data:ItemGroupDataSeq="45">
<ItemData ItemOID="IT.ADTTE.STUDYID" Value="SASCSTDEMODATA"/>
<ItemData ItemOID="IT.ADTTE.USUBJID" Value="S002P030"/>
<ItemData ItemOID="IT.ADTTE.TRTP" Value="TRT A"/>
<ItemData ItemOID="IT.ADTTE.TRTPN" Value="1"/>
<ItemData ItemOID="IT.ADTTE.ADT" Value="17675"/>
<ItemData ItemOID="IT.ADTTE.AVISIT" Value="4 WEEKS"/>
<ItemData ItemOID="IT.ADTTE.PARAM" Value="Successful study completion"/>
<ItemData ItemOID="IT.ADTTE.PARAMCD" Value="STDYCOMP"/>
<ItemData ItemOID="IT.ADTTE.AVAL" Value="29"/>
<ItemData ItemOID="IT.ADTTE.STARTDT" Value="17647"/>
<ItemData ItemOID="IT.ADTTE.CNSR" Value="2"/>
<ItemData ItemOID="IT.ADTTE.EVNTDESC" Value="PHYSICIAN DECISION"/>
<ItemData ItemOID="IT.ADTTE.SRCDOM" Value="DS"/>
<ItemData ItemOID="IT.ADTTE.SRCVAR" Value="DSDECOD"/>
<ItemData ItemOID="IT.ADTTE.SRCSEQ" Value="132"/>
</ItemGroupData>
<ItemGroupData ItemGroupOID="IG.ADTTE" data:ItemGroupDataSeq="46">
<ItemData ItemOID="IT.ADTTE.STUDYID" Value="SASCSTDEMODATA"/>
<ItemData ItemOID="IT.ADTTE.USUBJID" Value="S002P031"/>
<ItemData ItemOID="IT.ADTTE.TRTP" Value="TRT A"/>
<ItemData ItemOID="IT.ADTTE.TRTPN" Value="1"/>
<ItemData ItemOID="IT.ADTTE.ADT" Value="17694"/>
<ItemData ItemOID="IT.ADTTE.AVISIT" Value="6 WEEKS"/>
<ItemData ItemOID="IT.ADTTE.PARAM" Value="Successful study completion"/>
<ItemData ItemOID="IT.ADTTE.PARAMCD" Value="STDYCOMP"/>
<ItemData ItemOID="IT.ADTTE.AVAL" Value="44"/>
<ItemData ItemOID="IT.ADTTE.STARTDT" Value="17651"/>
<ItemData ItemOID="IT.ADTTE.CNSR" Value="0"/>
<ItemData ItemOID="IT.ADTTE.EVNTDESC" Value="COMPLETED"/>
<ItemData ItemOID="IT.ADTTE.SRCDOM" Value="DS"/>
<ItemData ItemOID="IT.ADTTE.SRCVAR" Value="DSDECOD"/>
<ItemData ItemOID="IT.ADTTE.SRCSEQ" Value="134"/>
</ItemGroupData>
<ItemGroupData ItemGroupOID="IG.ADTTE" data:ItemGroupDataSeq="47">
<ItemData ItemOID="IT.ADTTE.STUDYID" Value="SASCSTDEMODATA"/>
<ItemData ItemOID="IT.ADTTE.USUBJID" Value="S002P032"/>
<ItemData ItemOID="IT.ADTTE.TRTP" Value="TRT A"/>
<ItemData ItemOID="IT.ADTTE.TRTPN" Value="1"/>
<ItemData ItemOID="IT.ADTTE.ADT" Value="17694"/>
<ItemData ItemOID="IT.ADTTE.AVISIT" Value="6 WEEKS"/>
<ItemData ItemOID="IT.ADTTE.PARAM" Value="Successful study completion"/>
<ItemData ItemOID="IT.ADTTE.PARAMCD" Value="STDYCOMP"/>
<ItemData ItemOID="IT.ADTTE.AVAL" Value="43"/>
<ItemData ItemOID="IT.ADTTE.STARTDT" Value="17652"/>
<ItemData ItemOID="IT.ADTTE.CNSR" Value="0"/>
<ItemData ItemOID="IT.ADTTE.EVNTDESC" Value="COMPLETED"/>
<ItemData ItemOID="IT.ADTTE.SRCDOM" Value="DS"/>
<ItemData ItemOID="IT.ADTTE.SRCVAR" Value="DSDECOD"/>
<ItemData ItemOID="IT.ADTTE.SRCSEQ" Value="137"/>
</ItemGroupData>
<ItemGroupData ItemGroupOID="IG.ADTTE" data:ItemGroupDataSeq="48">
<ItemData ItemOID="IT.ADTTE.STUDYID" Value="SASCSTDEMODATA"/>
<ItemData ItemOID="IT.ADTTE.USUBJID" Value="S002P033"/>
<ItemData ItemOID="IT.ADTTE.TRTP" Value="TRT B"/>
<ItemData ItemOID="IT.ADTTE.TRTPN" Value="2"/>
<ItemData ItemOID="IT.ADTTE.ADT" Value="17696"/>
<ItemData ItemOID="IT.ADTTE.AVISIT" Value="6 WEEKS"/>
<ItemData ItemOID="IT.ADTTE.PARAM" Value="Successful study completion"/>
<ItemData ItemOID="IT.ADTTE.PARAMCD" Value="STDYCOMP"/>
<ItemData ItemOID="IT.ADTTE.AVAL" Value="43"/>
<ItemData ItemOID="IT.ADTTE.STARTDT" Value="17654"/>
<ItemData ItemOID="IT.ADTTE.CNSR" Value="0"/>
<ItemData ItemOID="IT.ADTTE.EVNTDESC" Value="COMPLETED"/>
<ItemData ItemOID="IT.ADTTE.SRCDOM" Value="DS"/>
<ItemData ItemOID="IT.ADTTE.SRCVAR" Value="DSDECOD"/>
<ItemData ItemOID="IT.ADTTE.SRCSEQ" Value="140"/>
</ItemGroupData>
<ItemGroupData ItemGroupOID="IG.ADTTE" data:ItemGroupDataSeq="49">
<ItemData ItemOID="IT.ADTTE.STUDYID" Value="SASCSTDEMODATA"/>
<ItemData ItemOID="IT.ADTTE.USUBJID" Value="S002P034"/>
<ItemData ItemOID="IT.ADTTE.TRTP" Value="SCREEN FAILURE"/>
<ItemData ItemOID="IT.ADTTE.AVISIT" Value="RANDOMIZATION"/>
<ItemData ItemOID="IT.ADTTE.PARAM" Value="Successful study completion"/>
<ItemData ItemOID="IT.ADTTE.PARAMCD" Value="STDYCOMP"/>
<ItemData ItemOID="IT.ADTTE.STARTDT" Value="17659"/>
<ItemData ItemOID="IT.ADTTE.SRCDOM" Value="DS"/>
<ItemData ItemOID="IT.ADTTE.SRCVAR" Value="DSDECOD"/>
</ItemGroupData>
<ItemGroupData ItemGroupOID="IG.ADTTE" data:ItemGroupDataSeq="50">
<ItemData ItemOID="IT.ADTTE.STUDYID" Value="SASCSTDEMODATA"/>
<ItemData ItemOID="IT.ADTTE.USUBJID" Value="S002P035"/>
<ItemData ItemOID="IT.ADTTE.TRTP" Value="TRT B"/>
<ItemData ItemOID="IT.ADTTE.TRTPN" Value="2"/>
<ItemData ItemOID="IT.ADTTE.ADT" Value="17701"/>
<ItemData ItemOID="IT.ADTTE.AVISIT" Value="6 WEEKS"/>
<ItemData ItemOID="IT.ADTTE.PARAM" Value="Successful study completion"/>
<ItemData ItemOID="IT.ADTTE.PARAMCD" Value="STDYCOMP"/>
<ItemData ItemOID="IT.ADTTE.AVAL" Value="43"/>
<ItemData ItemOID="IT.ADTTE.STARTDT" Value="17659"/>
<ItemData ItemOID="IT.ADTTE.CNSR" Value="0"/>
<ItemData ItemOID="IT.ADTTE.EVNTDESC" Value="COMPLETED"/>
<ItemData ItemOID="IT.ADTTE.SRCDOM" Value="DS"/>
<ItemData ItemOID="IT.ADTTE.SRCVAR" Value="DSDECOD"/>
<ItemData ItemOID="IT.ADTTE.SRCSEQ" Value="145"/>
</ItemGroupData>
<ItemGroupData ItemGroupOID="IG.ADTTE" data:ItemGroupDataSeq="51">
<ItemData ItemOID="IT.ADTTE.STUDYID" Value="SASCSTDEMODATA"/>
<ItemData ItemOID="IT.ADTTE.USUBJID" Value="S003P001"/>
<ItemData ItemOID="IT.ADTTE.TRTP" Value="TRT B"/>
<ItemData ItemOID="IT.ADTTE.TRTPN" Value="2"/>
<ItemData ItemOID="IT.ADTTE.ADT" Value="17673"/>
<ItemData ItemOID="IT.ADTTE.AVISIT" Value="6 WEEKS"/>
<ItemData ItemOID="IT.ADTTE.PARAM" Value="Successful study completion"/>
<ItemData ItemOID="IT.ADTTE.PARAMCD" Value="STDYCOMP"/>
<ItemData ItemOID="IT.ADTTE.AVAL" Value="43"/>
<ItemData ItemOID="IT.ADTTE.STARTDT" Value="17631"/>
<ItemData ItemOID="IT.ADTTE.CNSR" Value="0"/>
<ItemData ItemOID="IT.ADTTE.EVNTDESC" Value="COMPLETED"/>
<ItemData ItemOID="IT.ADTTE.SRCDOM" Value="DS"/>
<ItemData ItemOID="IT.ADTTE.SRCVAR" Value="DSDECOD"/>
<ItemData ItemOID="IT.ADTTE.SRCSEQ" Value="148"/>
</ItemGroupData>
<ItemGroupData ItemGroupOID="IG.ADTTE" data:ItemGroupDataSeq="52">
<ItemData ItemOID="IT.ADTTE.STUDYID" Value="SASCSTDEMODATA"/>
<ItemData ItemOID="IT.ADTTE.USUBJID" Value="S003P002"/>
<ItemData ItemOID="IT.ADTTE.TRTP" Value="TRT B"/>
<ItemData ItemOID="IT.ADTTE.TRTPN" Value="2"/>
<ItemData ItemOID="IT.ADTTE.ADT" Value="17660"/>
<ItemData ItemOID="IT.ADTTE.AVISIT" Value="4 WEEKS"/>
<ItemData ItemOID="IT.ADTTE.PARAM" Value="Successful study completion"/>
<ItemData ItemOID="IT.ADTTE.PARAMCD" Value="STDYCOMP"/>
<ItemData ItemOID="IT.ADTTE.AVAL" Value="29"/>
<ItemData ItemOID="IT.ADTTE.STARTDT" Value="17632"/>
<ItemData ItemOID="IT.ADTTE.CNSR" Value="1"/>
<ItemData ItemOID="IT.ADTTE.EVNTDESC" Value="LOST TO FOLLOW UP"/>
<ItemData ItemOID="IT.ADTTE.SRCDOM" Value="DS"/>
<ItemData ItemOID="IT.ADTTE.SRCVAR" Value="DSDECOD"/>
<ItemData ItemOID="IT.ADTTE.SRCSEQ" Value="152"/>
</ItemGroupData>
<ItemGroupData ItemGroupOID="IG.ADTTE" data:ItemGroupDataSeq="53">
<ItemData ItemOID="IT.ADTTE.STUDYID" Value="SASCSTDEMODATA"/>
<ItemData ItemOID="IT.ADTTE.USUBJID" Value="S003P003"/>
<ItemData ItemOID="IT.ADTTE.TRTP" Value="TRT C"/>
<ItemData ItemOID="IT.ADTTE.TRTPN" Value="3"/>
<ItemData ItemOID="IT.ADTTE.ADT" Value="17679"/>
<ItemData ItemOID="IT.ADTTE.AVISIT" Value="6 WEEKS"/>
<ItemData ItemOID="IT.ADTTE.PARAM" Value="Successful study completion"/>
<ItemData ItemOID="IT.ADTTE.PARAMCD" Value="STDYCOMP"/>
<ItemData ItemOID="IT.ADTTE.AVAL" Value="43"/>
<ItemData ItemOID="IT.ADTTE.STARTDT" Value="17637"/>
<ItemData ItemOID="IT.ADTTE.CNSR" Value="0"/>
<ItemData ItemOID="IT.ADTTE.EVNTDESC" Value="COMPLETED"/>
<ItemData ItemOID="IT.ADTTE.SRCDOM" Value="DS"/>
<ItemData ItemOID="IT.ADTTE.SRCVAR" Value="DSDECOD"/>
<ItemData ItemOID="IT.ADTTE.SRCSEQ" Value="154"/>
</ItemGroupData>
<ItemGroupData ItemGroupOID="IG.ADTTE" data:ItemGroupDataSeq="54">
<ItemData ItemOID="IT.ADTTE.STUDYID" Value="SASCSTDEMODATA"/>
<ItemData ItemOID="IT.ADTTE.USUBJID" Value="S003P004"/>
<ItemData ItemOID="IT.ADTTE.TRTP" Value="TRT A"/>
<ItemData ItemOID="IT.ADTTE.TRTPN" Value="1"/>
<ItemData ItemOID="IT.ADTTE.ADT" Value="17654"/>
<ItemData ItemOID="IT.ADTTE.AVISIT" Value="2 WEEKS"/>
<ItemData ItemOID="IT.ADTTE.PARAM" Value="Successful study completion"/>
<ItemData ItemOID="IT.ADTTE.PARAMCD" Value="STDYCOMP"/>
<ItemData ItemOID="IT.ADTTE.AVAL" Value="16"/>
<ItemData ItemOID="IT.ADTTE.STARTDT" Value="17639"/>
<ItemData ItemOID="IT.ADTTE.CNSR" Value="1"/>
<ItemData ItemOID="IT.ADTTE.EVNTDESC" Value="LOST TO FOLLOW UP"/>
<ItemData ItemOID="IT.ADTTE.SRCDOM" Value="DS"/>
<ItemData ItemOID="IT.ADTTE.SRCVAR" Value="DSDECOD"/>
<ItemData ItemOID="IT.ADTTE.SRCSEQ" Value="158"/>
</ItemGroupData>
<ItemGroupData ItemGroupOID="IG.ADTTE" data:ItemGroupDataSeq="55">
<ItemData ItemOID="IT.ADTTE.STUDYID" Value="SASCSTDEMODATA"/>
<ItemData ItemOID="IT.ADTTE.USUBJID" Value="S003P005"/>
<ItemData ItemOID="IT.ADTTE.TRTP" Value="TRT B"/>
<ItemData ItemOID="IT.ADTTE.TRTPN" Value="2"/>
<ItemData ItemOID="IT.ADTTE.ADT" Value="17689"/>
<ItemData ItemOID="IT.ADTTE.AVISIT" Value="6 WEEKS"/>
<ItemData ItemOID="IT.ADTTE.PARAM" Value="Successful study completion"/>
<ItemData ItemOID="IT.ADTTE.PARAMCD" Value="STDYCOMP"/>
<ItemData ItemOID="IT.ADTTE.AVAL" Value="43"/>
<ItemData ItemOID="IT.ADTTE.STARTDT" Value="17647"/>
<ItemData ItemOID="IT.ADTTE.CNSR" Value="0"/>
<ItemData ItemOID="IT.ADTTE.EVNTDESC" Value="COMPLETED"/>
<ItemData ItemOID="IT.ADTTE.SRCDOM" Value="DS"/>
<ItemData ItemOID="IT.ADTTE.SRCVAR" Value="DSDECOD"/>
<ItemData ItemOID="IT.ADTTE.SRCSEQ" Value="160"/>
</ItemGroupData>
<ItemGroupData ItemGroupOID="IG.ADTTE" data:ItemGroupDataSeq="56">
<ItemData ItemOID="IT.ADTTE.STUDYID" Value="SASCSTDEMODATA"/>
<ItemData ItemOID="IT.ADTTE.USUBJID" Value="S003P006"/>
<ItemData ItemOID="IT.ADTTE.TRTP" Value="TRT A"/>
<ItemData ItemOID="IT.ADTTE.TRTPN" Value="1"/>
<ItemData ItemOID="IT.ADTTE.ADT" Value="17694"/>
<ItemData ItemOID="IT.ADTTE.AVISIT" Value="6 WEEKS"/>
<ItemData ItemOID="IT.ADTTE.PARAM" Value="Successful study completion"/>
<ItemData ItemOID="IT.ADTTE.PARAMCD" Value="STDYCOMP"/>
<ItemData ItemOID="IT.ADTTE.AVAL" Value="42"/>
<ItemData ItemOID="IT.ADTTE.STARTDT" Value="17653"/>
<ItemData ItemOID="IT.ADTTE.CNSR" Value="0"/>
<ItemData ItemOID="IT.ADTTE.EVNTDESC" Value="COMPLETED"/>
<ItemData ItemOID="IT.ADTTE.SRCDOM" Value="DS"/>
<ItemData ItemOID="IT.ADTTE.SRCVAR" Value="DSDECOD"/>
<ItemData ItemOID="IT.ADTTE.SRCSEQ" Value="163"/>
</ItemGroupData>
<ItemGroupData ItemGroupOID="IG.ADTTE" data:ItemGroupDataSeq="57">
<ItemData ItemOID="IT.ADTTE.STUDYID" Value="SASCSTDEMODATA"/>
<ItemData ItemOID="IT.ADTTE.USUBJID" Value="S003P007"/>
<ItemData ItemOID="IT.ADTTE.TRTP" Value="TRT B"/>
<ItemData ItemOID="IT.ADTTE.TRTPN" Value="2"/>
<ItemData ItemOID="IT.ADTTE.ADT" Value="17658"/>
<ItemData ItemOID="IT.ADTTE.AVISIT" Value="RANDOMIZATION"/>
<ItemData ItemOID="IT.ADTTE.PARAM" Value="Successful study completion"/>
<ItemData ItemOID="IT.ADTTE.PARAMCD" Value="STDYCOMP"/>
<ItemData ItemOID="IT.ADTTE.AVAL" Value="1"/>
<ItemData ItemOID="IT.ADTTE.STARTDT" Value="17658"/>
<ItemData ItemOID="IT.ADTTE.CNSR" Value="1"/>
<ItemData ItemOID="IT.ADTTE.EVNTDESC" Value="LOST TO FOLLOW UP"/>
<ItemData ItemOID="IT.ADTTE.SRCDOM" Value="DS"/>
<ItemData ItemOID="IT.ADTTE.SRCVAR" Value="DSDECOD"/>
<ItemData ItemOID="IT.ADTTE.SRCSEQ" Value="167"/>
</ItemGroupData>
<ItemGroupData ItemGroupOID="IG.ADTTE" data:ItemGroupDataSeq="58">
<ItemData ItemOID="IT.ADTTE.STUDYID" Value="SASCSTDEMODATA"/>
<ItemData ItemOID="IT.ADTTE.USUBJID" Value="S003P008"/>
<ItemData ItemOID="IT.ADTTE.TRTP" Value="TRT A"/>
<ItemData ItemOID="IT.ADTTE.TRTPN" Value="1"/>
<ItemData ItemOID="IT.ADTTE.ADT" Value="17707"/>
<ItemData ItemOID="IT.ADTTE.AVISIT" Value="6 WEEKS"/>
<ItemData ItemOID="IT.ADTTE.PARAM" Value="Successful study completion"/>
<ItemData ItemOID="IT.ADTTE.PARAMCD" Value="STDYCOMP"/>
<ItemData ItemOID="IT.ADTTE.AVAL" Value="43"/>
<ItemData ItemOID="IT.ADTTE.STARTDT" Value="17665"/>
<ItemData ItemOID="IT.ADTTE.CNSR" Value="0"/>
<ItemData ItemOID="IT.ADTTE.EVNTDESC" Value="COMPLETED"/>
<ItemData ItemOID="IT.ADTTE.SRCDOM" Value="DS"/>
<ItemData ItemOID="IT.ADTTE.SRCVAR" Value="DSDECOD"/>
<ItemData ItemOID="IT.ADTTE.SRCSEQ" Value="169"/>
</ItemGroupData>
<ItemGroupData ItemGroupOID="IG.ADTTE" data:ItemGroupDataSeq="59">
<ItemData ItemOID="IT.ADTTE.STUDYID" Value="SASCSTDEMODATA"/>
<ItemData ItemOID="IT.ADTTE.USUBJID" Value="S003P009"/>
<ItemData ItemOID="IT.ADTTE.TRTP" Value="Treatment XYZ"/>
<ItemData ItemOID="IT.ADTTE.ADT" Value="17699"/>
<ItemData ItemOID="IT.ADTTE.AVISIT" Value="4 WEEKS"/>
<ItemData ItemOID="IT.ADTTE.PARAM" Value="Successful study completion"/>
<ItemData ItemOID="IT.ADTTE.PARAMCD" Value="STDYCOMP"/>
<ItemData ItemOID="IT.ADTTE.AVAL" Value="28"/>
<ItemData ItemOID="IT.ADTTE.STARTDT" Value="17672"/>
<ItemData ItemOID="IT.ADTTE.CNSR" Value="1"/>
<ItemData ItemOID="IT.ADTTE.EVNTDESC" Value="LOST TO FOLLOW UP"/>
<ItemData ItemOID="IT.ADTTE.SRCDOM" Value="DS"/>
<ItemData ItemOID="IT.ADTTE.SRCVAR" Value="DSDECOD"/>
<ItemData ItemOID="IT.ADTTE.SRCSEQ" Value="173"/>
</ItemGroupData>
<ItemGroupData ItemGroupOID="IG.ADTTE" data:ItemGroupDataSeq="60">
<ItemData ItemOID="IT.ADTTE.STUDYID" Value="SASCSTDEMODATA"/>
<ItemData ItemOID="IT.ADTTE.USUBJID" Value="S003P010"/>
<ItemData ItemOID="IT.ADTTE.TRTP" Value="SCREEN Failure"/>
<ItemData ItemOID="IT.ADTTE.ADT" Value="17723"/>
<ItemData ItemOID="IT.ADTTE.AVISIT" Value="6 WEEKS"/>
<ItemData ItemOID="IT.ADTTE.PARAM" Value="Successful study completion"/>
<ItemData ItemOID="IT.ADTTE.PARAMCD" Value="STDYCOMP"/>
<ItemData ItemOID="IT.ADTTE.AVAL" Value="43"/>
<ItemData ItemOID="IT.ADTTE.STARTDT" Value="17681"/>
<ItemData ItemOID="IT.ADTTE.CNSR" Value="0"/>
<ItemData ItemOID="IT.ADTTE.EVNTDESC" Value="COMPLETED"/>
<ItemData ItemOID="IT.ADTTE.SRCDOM" Value="DS"/>
<ItemData ItemOID="IT.ADTTE.SRCVAR" Value="DSDECOD"/>
<ItemData ItemOID="IT.ADTTE.SRCSEQ" Value="175"/>
</ItemGroupData>
<ItemGroupData ItemGroupOID="IG.ADTTE" data:ItemGroupDataSeq="61">
<ItemData ItemOID="IT.ADTTE.STUDYID" Value="SASCSTDEMODATA"/>
<ItemData ItemOID="IT.ADTTE.USUBJID" Value="S003P011"/>
<ItemData ItemOID="IT.ADTTE.TRTP" Value="TRT A"/>
<ItemData ItemOID="IT.ADTTE.TRTPN" Value="1"/>
<ItemData ItemOID="IT.ADTTE.ADT" Value="17714"/>
<ItemData ItemOID="IT.ADTTE.AVISIT" Value="4 WEEKS"/>
<ItemData ItemOID="IT.ADTTE.PARAM" Value="Successful study completion"/>
<ItemData ItemOID="IT.ADTTE.PARAMCD" Value="STDYCOMP"/>
<ItemData ItemOID="IT.ADTTE.AVAL" Value="29"/>
<ItemData ItemOID="IT.ADTTE.STARTDT" Value="17686"/>
<ItemData ItemOID="IT.ADTTE.CNSR" Value="1"/>
<ItemData ItemOID="IT.ADTTE.EVNTDESC" Value="LOST TO FOLLOW UP"/>
<ItemData ItemOID="IT.ADTTE.SRCDOM" Value="DS"/>
<ItemData ItemOID="IT.ADTTE.SRCVAR" Value="DSDECOD"/>
<ItemData ItemOID="IT.ADTTE.SRCSEQ" Value="179"/>
</ItemGroupData>
<ItemGroupData ItemGroupOID="IG.ADTTE" data:ItemGroupDataSeq="62">
<ItemData ItemOID="IT.ADTTE.STUDYID" Value="SASCSTDEMODATA"/>
<ItemData ItemOID="IT.ADTTE.USUBJID" Value="S003P012"/>
<ItemData ItemOID="IT.ADTTE.TRTP" Value="TRT C"/>
<ItemData ItemOID="IT.ADTTE.TRTPN" Value="3"/>
<ItemData ItemOID="IT.ADTTE.ADT" Value="17722"/>
<ItemData ItemOID="IT.ADTTE.AVISIT" Value="4 WEEKS"/>
<ItemData ItemOID="IT.ADTTE.PARAM" Value="Successful study completion"/>
<ItemData ItemOID="IT.ADTTE.PARAMCD" Value="STDYCOMP"/>
<ItemData ItemOID="IT.ADTTE.AVAL" Value="28"/>
<ItemData ItemOID="IT.ADTTE.STARTDT" Value="17695"/>
<ItemData ItemOID="IT.ADTTE.CNSR" Value="1"/>
<ItemData ItemOID="IT.ADTTE.EVNTDESC" Value="LOST TO FOLLOW UP"/>
<ItemData ItemOID="IT.ADTTE.SRCDOM" Value="DS"/>
<ItemData ItemOID="IT.ADTTE.SRCVAR" Value="DSDECOD"/>
<ItemData ItemOID="IT.ADTTE.SRCSEQ" Value="182"/>
</ItemGroupData>
<ItemGroupData ItemGroupOID="IG.ADTTE" data:ItemGroupDataSeq="63">
<ItemData ItemOID="IT.ADTTE.STUDYID" Value="SASCSTDEMODATA"/>
<ItemData ItemOID="IT.ADTTE.USUBJID" Value="S003P013"/>
<ItemData ItemOID="IT.ADTTE.TRTP" Value="TRT B"/>
<ItemData ItemOID="IT.ADTTE.TRTPN" Value="2"/>
<ItemData ItemOID="IT.ADTTE.ADT" Value="17700"/>
<ItemData ItemOID="IT.ADTTE.AVISIT" Value="RANDOMIZATION"/>
<ItemData ItemOID="IT.ADTTE.PARAM" Value="Successful study completion"/>
<ItemData ItemOID="IT.ADTTE.PARAMCD" Value="STDYCOMP"/>
<ItemData ItemOID="IT.ADTTE.AVAL" Value="1"/>
<ItemData ItemOID="IT.ADTTE.STARTDT" Value="17700"/>
<ItemData ItemOID="IT.ADTTE.CNSR" Value="1"/>
<ItemData ItemOID="IT.ADTTE.EVNTDESC" Value="LOST TO FOLLOW UP"/>
<ItemData ItemOID="IT.ADTTE.SRCDOM" Value="DS"/>
<ItemData ItemOID="IT.ADTTE.SRCVAR" Value="DSDECOD"/>
<ItemData ItemOID="IT.ADTTE.SRCSEQ" Value="185"/>
</ItemGroupData>
<ItemGroupData ItemGroupOID="IG.ADTTE" data:ItemGroupDataSeq="64">
<ItemData ItemOID="IT.ADTTE.STUDYID" Value="SASCSTDEMODATA"/>
<ItemData ItemOID="IT.ADTTE.USUBJID" Value="S003P014"/>
<ItemData ItemOID="IT.ADTTE.TRTP" Value="TRT A"/>
<ItemData ItemOID="IT.ADTTE.TRTPN" Value="1"/>
<ItemData ItemOID="IT.ADTTE.ADT" Value="17743"/>
<ItemData ItemOID="IT.ADTTE.AVISIT" Value="4 WEEKS"/>
<ItemData ItemOID="IT.ADTTE.PARAM" Value="Successful study completion"/>
<ItemData ItemOID="IT.ADTTE.PARAMCD" Value="STDYCOMP"/>
<ItemData ItemOID="IT.ADTTE.AVAL" Value="31"/>
<ItemData ItemOID="IT.ADTTE.STARTDT" Value="17713"/>
<ItemData ItemOID="IT.ADTTE.CNSR" Value="1"/>
<ItemData ItemOID="IT.ADTTE.EVNTDESC" Value="LOST TO FOLLOW UP"/>
<ItemData ItemOID="IT.ADTTE.SRCDOM" Value="DS"/>
<ItemData ItemOID="IT.ADTTE.SRCVAR" Value="DSDECOD"/>
<ItemData ItemOID="IT.ADTTE.SRCSEQ" Value="188"/>
</ItemGroupData>
<ItemGroupData ItemGroupOID="IG.ADTTE" data:ItemGroupDataSeq="65">
<ItemData ItemOID="IT.ADTTE.STUDYID" Value="SASCSTDEMODATA"/>
<ItemData ItemOID="IT.ADTTE.USUBJID" Value="S003P015"/>
<ItemData ItemOID="IT.ADTTE.TRTP" Value="TRT B"/>
<ItemData ItemOID="IT.ADTTE.TRTPN" Value="2"/>
<ItemData ItemOID="IT.ADTTE.ADT" Value="17758"/>
<ItemData ItemOID="IT.ADTTE.AVISIT" Value="6 WEEKS"/>
<ItemData ItemOID="IT.ADTTE.PARAM" Value="Successful study completion"/>
<ItemData ItemOID="IT.ADTTE.PARAMCD" Value="STDYCOMP"/>
<ItemData ItemOID="IT.ADTTE.AVAL" Value="43"/>
<ItemData ItemOID="IT.ADTTE.STARTDT" Value="17716"/>
<ItemData ItemOID="IT.ADTTE.CNSR" Value="0"/>
<ItemData ItemOID="IT.ADTTE.EVNTDESC" Value="COMPLETED"/>
<ItemData ItemOID="IT.ADTTE.SRCDOM" Value="DS"/>
<ItemData ItemOID="IT.ADTTE.SRCVAR" Value="DSDECOD"/>
<ItemData ItemOID="IT.ADTTE.SRCSEQ" Value="190"/>
</ItemGroupData>
<ItemGroupData ItemGroupOID="IG.ADTTE" data:ItemGroupDataSeq="66">
<ItemData ItemOID="IT.ADTTE.STUDYID" Value="SASCSTDEMODATA"/>
<ItemData ItemOID="IT.ADTTE.USUBJID" Value="S003P016"/>
<ItemData ItemOID="IT.ADTTE.TRTP" Value="TRT B"/>
<ItemData ItemOID="IT.ADTTE.TRTPN" Value="2"/>
<ItemData ItemOID="IT.ADTTE.ADT" Value="17764"/>
<ItemData ItemOID="IT.ADTTE.AVISIT" Value="6 WEEKS"/>
<ItemData ItemOID="IT.ADTTE.PARAM" Value="Successful study completion"/>
<ItemData ItemOID="IT.ADTTE.PARAMCD" Value="STDYCOMP"/>
<ItemData ItemOID="IT.ADTTE.AVAL" Value="42"/>
<ItemData ItemOID="IT.ADTTE.STARTDT" Value="17723"/>
<ItemData ItemOID="IT.ADTTE.CNSR" Value="0"/>
<ItemData ItemOID="IT.ADTTE.EVNTDESC" Value="COMPLETED"/>
<ItemData ItemOID="IT.ADTTE.SRCDOM" Value="DS"/>
<ItemData ItemOID="IT.ADTTE.SRCVAR" Value="DSDECOD"/>
<ItemData ItemOID="IT.ADTTE.SRCSEQ" Value="193"/>
</ItemGroupData>
<ItemGroupData ItemGroupOID="IG.ADTTE" data:ItemGroupDataSeq="67">
<ItemData ItemOID="IT.ADTTE.STUDYID" Value="SASCSTDEMODATA"/>
<ItemData ItemOID="IT.ADTTE.USUBJID" Value="S003P017"/>
<ItemData ItemOID="IT.ADTTE.TRTP" Value="TRT C"/>
<ItemData ItemOID="IT.ADTTE.TRTPN" Value="3"/>
<ItemData ItemOID="IT.ADTTE.ADT" Value="17770"/>
<ItemData ItemOID="IT.ADTTE.AVISIT" Value="6 WEEKS"/>
<ItemData ItemOID="IT.ADTTE.PARAM" Value="Successful study completion"/>
<ItemData ItemOID="IT.ADTTE.PARAMCD" Value="STDYCOMP"/>
<ItemData ItemOID="IT.ADTTE.AVAL" Value="43"/>
<ItemData ItemOID="IT.ADTTE.STARTDT" Value="17728"/>
<ItemData ItemOID="IT.ADTTE.CNSR" Value="0"/>
<ItemData ItemOID="IT.ADTTE.EVNTDESC" Value="COMPLETED"/>
<ItemData ItemOID="IT.ADTTE.SRCDOM" Value="DS"/>
<ItemData ItemOID="IT.ADTTE.SRCVAR" Value="DSDECOD"/>
<ItemData ItemOID="IT.ADTTE.SRCSEQ" Value="196"/>
</ItemGroupData>
<ItemGroupData ItemGroupOID="IG.ADTTE" data:ItemGroupDataSeq="68">
<ItemData ItemOID="IT.ADTTE.STUDYID" Value="SASCSTDEMODATA"/>
<ItemData ItemOID="IT.ADTTE.USUBJID" Value="S003P018"/>
<ItemData ItemOID="IT.ADTTE.TRTP" Value="TRT B"/>
<ItemData ItemOID="IT.ADTTE.TRTPN" Value="2"/>
<ItemData ItemOID="IT.ADTTE.ADT" Value="17776"/>
<ItemData ItemOID="IT.ADTTE.AVISIT" Value="6 WEEKS"/>
<ItemData ItemOID="IT.ADTTE.PARAM" Value="Successful study completion"/>
<ItemData ItemOID="IT.ADTTE.PARAMCD" Value="STDYCOMP"/>
<ItemData ItemOID="IT.ADTTE.AVAL" Value="43"/>
<ItemData ItemOID="IT.ADTTE.STARTDT" Value="17734"/>
<ItemData ItemOID="IT.ADTTE.CNSR" Value="0"/>
<ItemData ItemOID="IT.ADTTE.EVNTDESC" Value="COMPLETED"/>
<ItemData ItemOID="IT.ADTTE.SRCDOM" Value="DS"/>
<ItemData ItemOID="IT.ADTTE.SRCVAR" Value="DSDECOD"/>
<ItemData ItemOID="IT.ADTTE.SRCSEQ" Value="199"/>
</ItemGroupData>
<ItemGroupData ItemGroupOID="IG.ADTTE" data:ItemGroupDataSeq="69">
<ItemData ItemOID="IT.ADTTE.STUDYID" Value="SASCSTDEMODATA"/>
<ItemData ItemOID="IT.ADTTE.USUBJID" Value="S003P019"/>
<ItemData ItemOID="IT.ADTTE.TRTP" Value="TRT C"/>
<ItemData ItemOID="IT.ADTTE.TRTPN" Value="3"/>
<ItemData ItemOID="IT.ADTTE.ADT" Value="17780"/>
<ItemData ItemOID="IT.ADTTE.AVISIT" Value="6 WEEKS"/>
<ItemData ItemOID="IT.ADTTE.PARAM" Value="Successful study completion"/>
<ItemData ItemOID="IT.ADTTE.PARAMCD" Value="STDYCOMP"/>
<ItemData ItemOID="IT.ADTTE.AVAL" Value="44"/>
<ItemData ItemOID="IT.ADTTE.STARTDT" Value="17737"/>
<ItemData ItemOID="IT.ADTTE.CNSR" Value="0"/>
<ItemData ItemOID="IT.ADTTE.EVNTDESC" Value="COMPLETED"/>
<ItemData ItemOID="IT.ADTTE.SRCDOM" Value="DS"/>
<ItemData ItemOID="IT.ADTTE.SRCVAR" Value="DSDECOD"/>
<ItemData ItemOID="IT.ADTTE.SRCSEQ" Value="202"/>
</ItemGroupData>
<ItemGroupData ItemGroupOID="IG.ADTTE" data:ItemGroupDataSeq="70">
<ItemData ItemOID="IT.ADTTE.STUDYID" Value="SASCSTDEMODATA"/>
<ItemData ItemOID="IT.ADTTE.USUBJID" Value="S003P020"/>
<ItemData ItemOID="IT.ADTTE.TRTP" Value="TRT C"/>
<ItemData ItemOID="IT.ADTTE.TRTPN" Value="3"/>
<ItemData ItemOID="IT.ADTTE.AVISIT" Value="6 WEEKS"/>
<ItemData ItemOID="IT.ADTTE.PARAM" Value="Successful study completion"/>
<ItemData ItemOID="IT.ADTTE.PARAMCD" Value="STDYCOMP"/>
<ItemData ItemOID="IT.ADTTE.STARTDT" Value="17745"/>
<ItemData ItemOID="IT.ADTTE.SRCDOM" Value="DS"/>
<ItemData ItemOID="IT.ADTTE.SRCVAR" Value="DSDECOD"/>
</ItemGroupData>
</ClinicalData>
</ODM>
