<?xml version="1.0" encoding="UTF-8"?>
<?xml-stylesheet type="text/xsl" href="define2-1.xsl"?>
<ODM xmlns="http://www.cdisc.org/ns/odm/v1.3" xmlns:xlink="http://www.w3.org/1999/xlink"
  xmlns:def="http://www.cdisc.org/ns/def/v2.1" FileOID="/ExampleJUV ID/Define-XML_2.0.0/1" ODMVersion="1.3.2"
  FileType="Snapshot" CreationDateTime="2022-08-05T12:16:02" Originator="ExampleJUV Sponsor" SourceSystem="DataDefine"
  SourceSystemVersion="2.2.0" def:Context="Submission">
  <Study OID="ExampleJUV ID">
    <GlobalVariables>
      <StudyName>ExampleJUV ID</StudyName>
      <StudyDescription>An Oral (Gavage) 6-Week Study of Juvenile Rat Toxicity with a 4-week Recovery
        Period</StudyDescription>
      <ProtocolName>ExampleJUV</ProtocolName>
    </GlobalVariables>
    <MetaDataVersion OID="MDV.ExampleJUV ID.SENDIG-DART.1.1.SDTM.1.6" Name="Study ExampleJUV ID, Data Definitions"
      Description="Study ExampleJUV ID, Data Definitions" def:DefineVersion="2.1.0">
      <def:Standards>
        <def:Standard OID="STD.1" Name="SENDIG-DART" Type="IG" Version="1.2" Status="Final"/>
        <def:Standard OID="STD.2" Name="CDISC/NCI" Type="CT" PublishingSet="SEND" Version="2021-12-17" Status="Final"/>
        <def:Standard OID="STD.3" Name="CDISC/NCI" Type="CT" PublishingSet="DEFINE-XML" Version="2020-12-18"
          Status="Final"/>
      </def:Standards>
      <def:ValueListDef OID="VL.BW.BWORRES">
        <ItemRef ItemOID="IT.BW.BWORRES._318" OrderNumber="1" Mandatory="No">
          <def:WhereClauseRef WhereClauseOID="WC.BW.BWORRES._318"/>
        </ItemRef>
        <ItemRef ItemOID="IT.BW.BWORRES.BW" OrderNumber="2" Mandatory="No">
          <def:WhereClauseRef WhereClauseOID="WC.BW.BWORRES.BW"/>
        </ItemRef>
        <ItemRef ItemOID="IT.BW.BWORRES.TERMBW" OrderNumber="3" Mandatory="No">
          <def:WhereClauseRef WhereClauseOID="WC.BW.BWORRES.TERMBW"/>
        </ItemRef>
      </def:ValueListDef>
      <def:ValueListDef OID="VL.DP.DPORRES">
        <ItemRef ItemOID="IT.DP.DPORRES.PREPUTSE" OrderNumber="1" Mandatory="No">
          <def:WhereClauseRef WhereClauseOID="WC.DP.DPORRES.PREPUTSE"/>
        </ItemRef>
        <ItemRef ItemOID="IT.DP.DPORRES.VAGOPEN" OrderNumber="2" Mandatory="No">
          <def:WhereClauseRef WhereClauseOID="WC.DP.DPORRES.VAGOPEN"/>
        </ItemRef>
      </def:ValueListDef>
      <def:ValueListDef OID="VL.DP.DPSTRESC">
        <ItemRef ItemOID="IT.DP.DPSTRESC.PREPUTSE" OrderNumber="1" Mandatory="No">
          <def:WhereClauseRef WhereClauseOID="WC.DP.DPSTRESC.PREPUTSE"/>
        </ItemRef>
        <ItemRef ItemOID="IT.DP.DPSTRESC.VAGOPEN" OrderNumber="2" Mandatory="No">
          <def:WhereClauseRef WhereClauseOID="WC.DP.DPSTRESC.VAGOPEN"/>
        </ItemRef>
      </def:ValueListDef>
      <def:ValueListDef OID="VL.FW.FWORRES">
        <ItemRef ItemOID="IT.FW.FWORRES.FC" OrderNumber="1" Mandatory="No">
          <def:WhereClauseRef WhereClauseOID="WC.FW.FWORRES.FC"/>
        </ItemRef>
      </def:ValueListDef>
      <def:ValueListDef OID="VL.FW.FWSTRESC">
        <ItemRef ItemOID="IT.FW.FWSTRESC.FC" OrderNumber="1" Mandatory="No" MethodOID="MT.COMPFCPERDAY">
          <def:WhereClauseRef WhereClauseOID="WC.FW.FWSTRESC.FC"/>
        </ItemRef>
      </def:ValueListDef>
      <def:ValueListDef OID="VL.LB.LBORRES">
        <ItemRef ItemOID="IT.LB.LBORRES.ALB" OrderNumber="1" Mandatory="No">
          <def:WhereClauseRef WhereClauseOID="WC.LB.LBORRES.ALB"/>
        </ItemRef>
        <ItemRef ItemOID="IT.LB.LBORRES.ALBGLOB" OrderNumber="2" Mandatory="No">
          <def:WhereClauseRef WhereClauseOID="WC.LB.LBORRES.ALBGLOB"/>
        </ItemRef>
        <ItemRef ItemOID="IT.LB.LBORRES.ALP" OrderNumber="3" Mandatory="No">
          <def:WhereClauseRef WhereClauseOID="WC.LB.LBORRES.ALP"/>
        </ItemRef>
        <ItemRef ItemOID="IT.LB.LBORRES.ALT" OrderNumber="4" Mandatory="No">
          <def:WhereClauseRef WhereClauseOID="WC.LB.LBORRES.ALT"/>
        </ItemRef>
        <ItemRef ItemOID="IT.LB.LBORRES.ALTAST" OrderNumber="5" Mandatory="No">
          <def:WhereClauseRef WhereClauseOID="WC.LB.LBORRES.ALTAST"/>
        </ItemRef>
        <ItemRef ItemOID="IT.LB.LBORRES.APTT" OrderNumber="6" Mandatory="No">
          <def:WhereClauseRef WhereClauseOID="WC.LB.LBORRES.APTT"/>
        </ItemRef>
        <ItemRef ItemOID="IT.LB.LBORRES.AST" OrderNumber="7" Mandatory="No">
          <def:WhereClauseRef WhereClauseOID="WC.LB.LBORRES.AST"/>
        </ItemRef>
        <ItemRef ItemOID="IT.LB.LBORRES.BASO" OrderNumber="8" Mandatory="No">
          <def:WhereClauseRef WhereClauseOID="WC.LB.LBORRES.BASO"/>
        </ItemRef>
        <ItemRef ItemOID="IT.LB.LBORRES.BASOLE" OrderNumber="9" Mandatory="No">
          <def:WhereClauseRef WhereClauseOID="WC.LB.LBORRES.BASOLE"/>
        </ItemRef>
        <ItemRef ItemOID="IT.LB.LBORRES.BILI1" OrderNumber="10" Mandatory="No">
          <def:WhereClauseRef WhereClauseOID="WC.LB.LBORRES.BILI1"/>
        </ItemRef>
        <ItemRef ItemOID="IT.LB.LBORRES.BILI2" OrderNumber="11" Mandatory="No">
          <def:WhereClauseRef WhereClauseOID="WC.LB.LBORRES.BILI2"/>
        </ItemRef>
        <ItemRef ItemOID="IT.LB.LBORRES.CA" OrderNumber="12" Mandatory="No">
          <def:WhereClauseRef WhereClauseOID="WC.LB.LBORRES.CA"/>
        </ItemRef>
        <ItemRef ItemOID="IT.LB.LBORRES.CACREAT" OrderNumber="13" Mandatory="No">
          <def:WhereClauseRef WhereClauseOID="WC.LB.LBORRES.CACREAT"/>
        </ItemRef>
        <ItemRef ItemOID="IT.LB.LBORRES.CAPHOS" OrderNumber="14" Mandatory="No">
          <def:WhereClauseRef WhereClauseOID="WC.LB.LBORRES.CAPHOS"/>
        </ItemRef>
        <ItemRef ItemOID="IT.LB.LBORRES.CHOL" OrderNumber="15" Mandatory="No">
          <def:WhereClauseRef WhereClauseOID="WC.LB.LBORRES.CHOL"/>
        </ItemRef>
        <ItemRef ItemOID="IT.LB.LBORRES.CL" OrderNumber="16" Mandatory="No">
          <def:WhereClauseRef WhereClauseOID="WC.LB.LBORRES.CL"/>
        </ItemRef>
        <ItemRef ItemOID="IT.LB.LBORRES.CLARITY" OrderNumber="17" Mandatory="No">
          <def:WhereClauseRef WhereClauseOID="WC.LB.LBORRES.CLARITY"/>
        </ItemRef>
        <ItemRef ItemOID="IT.LB.LBORRES.COLOR" OrderNumber="18" Mandatory="No">
          <def:WhereClauseRef WhereClauseOID="WC.LB.LBORRES.COLOR"/>
        </ItemRef>
        <ItemRef ItemOID="IT.LB.LBORRES.CREAT" OrderNumber="19" Mandatory="No">
          <def:WhereClauseRef WhereClauseOID="WC.LB.LBORRES.CREAT"/>
        </ItemRef>
        <ItemRef ItemOID="IT.LB.LBORRES.EOS" OrderNumber="20" Mandatory="No">
          <def:WhereClauseRef WhereClauseOID="WC.LB.LBORRES.EOS"/>
        </ItemRef>
        <ItemRef ItemOID="IT.LB.LBORRES.EOSLE" OrderNumber="21" Mandatory="No">
          <def:WhereClauseRef WhereClauseOID="WC.LB.LBORRES.EOSLE"/>
        </ItemRef>
        <ItemRef ItemOID="IT.LB.LBORRES.FIBRINO" OrderNumber="22" Mandatory="No">
          <def:WhereClauseRef WhereClauseOID="WC.LB.LBORRES.FIBRINO"/>
        </ItemRef>
        <ItemRef ItemOID="IT.LB.LBORRES.GGT" OrderNumber="23" Mandatory="No">
          <def:WhereClauseRef WhereClauseOID="WC.LB.LBORRES.GGT"/>
        </ItemRef>
        <ItemRef ItemOID="IT.LB.LBORRES.GLOBUL" OrderNumber="24" Mandatory="No">
          <def:WhereClauseRef WhereClauseOID="WC.LB.LBORRES.GLOBUL"/>
        </ItemRef>
        <ItemRef ItemOID="IT.LB.LBORRES.GLUC1" OrderNumber="25" Mandatory="No">
          <def:WhereClauseRef WhereClauseOID="WC.LB.LBORRES.GLUC1"/>
        </ItemRef>
        <ItemRef ItemOID="IT.LB.LBORRES.GLUC2" OrderNumber="26" Mandatory="No">
          <def:WhereClauseRef WhereClauseOID="WC.LB.LBORRES.GLUC2"/>
        </ItemRef>
        <ItemRef ItemOID="IT.LB.LBORRES.HCT" OrderNumber="27" Mandatory="No">
          <def:WhereClauseRef WhereClauseOID="WC.LB.LBORRES.HCT"/>
        </ItemRef>
        <ItemRef ItemOID="IT.LB.LBORRES.HGB" OrderNumber="28" Mandatory="No">
          <def:WhereClauseRef WhereClauseOID="WC.LB.LBORRES.HGB"/>
        </ItemRef>
        <ItemRef ItemOID="IT.LB.LBORRES.K" OrderNumber="29" Mandatory="No">
          <def:WhereClauseRef WhereClauseOID="WC.LB.LBORRES.K"/>
        </ItemRef>
        <ItemRef ItemOID="IT.LB.LBORRES.KETONES" OrderNumber="30" Mandatory="No">
          <def:WhereClauseRef WhereClauseOID="WC.LB.LBORRES.KETONES"/>
        </ItemRef>
        <ItemRef ItemOID="IT.LB.LBORRES.LGLUCLE" OrderNumber="31" Mandatory="No">
          <def:WhereClauseRef WhereClauseOID="WC.LB.LBORRES.LGLUCLE"/>
        </ItemRef>
        <ItemRef ItemOID="IT.LB.LBORRES.LGUNSCE" OrderNumber="32" Mandatory="No">
          <def:WhereClauseRef WhereClauseOID="WC.LB.LBORRES.LGUNSCE"/>
        </ItemRef>
        <ItemRef ItemOID="IT.LB.LBORRES.LYM" OrderNumber="33" Mandatory="No">
          <def:WhereClauseRef WhereClauseOID="WC.LB.LBORRES.LYM"/>
        </ItemRef>
        <ItemRef ItemOID="IT.LB.LBORRES.LYMLE" OrderNumber="34" Mandatory="No">
          <def:WhereClauseRef WhereClauseOID="WC.LB.LBORRES.LYMLE"/>
        </ItemRef>
        <ItemRef ItemOID="IT.LB.LBORRES.MCH" OrderNumber="35" Mandatory="No">
          <def:WhereClauseRef WhereClauseOID="WC.LB.LBORRES.MCH"/>
        </ItemRef>
        <ItemRef ItemOID="IT.LB.LBORRES.MCHC" OrderNumber="36" Mandatory="No">
          <def:WhereClauseRef WhereClauseOID="WC.LB.LBORRES.MCHC"/>
        </ItemRef>
        <ItemRef ItemOID="IT.LB.LBORRES.MCV" OrderNumber="37" Mandatory="No">
          <def:WhereClauseRef WhereClauseOID="WC.LB.LBORRES.MCV"/>
        </ItemRef>
        <ItemRef ItemOID="IT.LB.LBORRES.MONO" OrderNumber="38" Mandatory="No">
          <def:WhereClauseRef WhereClauseOID="WC.LB.LBORRES.MONO"/>
        </ItemRef>
        <ItemRef ItemOID="IT.LB.LBORRES.MONOLE" OrderNumber="39" Mandatory="No">
          <def:WhereClauseRef WhereClauseOID="WC.LB.LBORRES.MONOLE"/>
        </ItemRef>
        <ItemRef ItemOID="IT.LB.LBORRES.NAK" OrderNumber="40" Mandatory="No">
          <def:WhereClauseRef WhereClauseOID="WC.LB.LBORRES.NAK"/>
        </ItemRef>
        <ItemRef ItemOID="IT.LB.LBORRES.NEUT" OrderNumber="41" Mandatory="No">
          <def:WhereClauseRef WhereClauseOID="WC.LB.LBORRES.NEUT"/>
        </ItemRef>
        <ItemRef ItemOID="IT.LB.LBORRES.NEUTLE" OrderNumber="42" Mandatory="No">
          <def:WhereClauseRef WhereClauseOID="WC.LB.LBORRES.NEUTLE"/>
        </ItemRef>
        <ItemRef ItemOID="IT.LB.LBORRES.OCCBLD" OrderNumber="43" Mandatory="No">
          <def:WhereClauseRef WhereClauseOID="WC.LB.LBORRES.OCCBLD"/>
        </ItemRef>
        <ItemRef ItemOID="IT.LB.LBORRES.PH" OrderNumber="44" Mandatory="No">
          <def:WhereClauseRef WhereClauseOID="WC.LB.LBORRES.PH"/>
        </ItemRef>
        <ItemRef ItemOID="IT.LB.LBORRES.PHOS" OrderNumber="45" Mandatory="No">
          <def:WhereClauseRef WhereClauseOID="WC.LB.LBORRES.PHOS"/>
        </ItemRef>
        <ItemRef ItemOID="IT.LB.LBORRES.PHOSCRT" OrderNumber="46" Mandatory="No">
          <def:WhereClauseRef WhereClauseOID="WC.LB.LBORRES.PHOSCRT"/>
        </ItemRef>
        <ItemRef ItemOID="IT.LB.LBORRES.PLAT" OrderNumber="47" Mandatory="No">
          <def:WhereClauseRef WhereClauseOID="WC.LB.LBORRES.PLAT"/>
        </ItemRef>
        <ItemRef ItemOID="IT.LB.LBORRES.PROT1" OrderNumber="48" Mandatory="No">
          <def:WhereClauseRef WhereClauseOID="WC.LB.LBORRES.PROT1"/>
        </ItemRef>
        <ItemRef ItemOID="IT.LB.LBORRES.PROT2" OrderNumber="49" Mandatory="No">
          <def:WhereClauseRef WhereClauseOID="WC.LB.LBORRES.PROT2"/>
        </ItemRef>
        <ItemRef ItemOID="IT.LB.LBORRES.PT" OrderNumber="50" Mandatory="No">
          <def:WhereClauseRef WhereClauseOID="WC.LB.LBORRES.PT"/>
        </ItemRef>
        <ItemRef ItemOID="IT.LB.LBORRES.RBC" OrderNumber="51" Mandatory="No">
          <def:WhereClauseRef WhereClauseOID="WC.LB.LBORRES.RBC"/>
        </ItemRef>
        <ItemRef ItemOID="IT.LB.LBORRES.RDW" OrderNumber="52" Mandatory="No">
          <def:WhereClauseRef WhereClauseOID="WC.LB.LBORRES.RDW"/>
        </ItemRef>
        <ItemRef ItemOID="IT.LB.LBORRES.RETI" OrderNumber="53" Mandatory="No">
          <def:WhereClauseRef WhereClauseOID="WC.LB.LBORRES.RETI"/>
        </ItemRef>
        <ItemRef ItemOID="IT.LB.LBORRES.RETIRBC" OrderNumber="54" Mandatory="No">
          <def:WhereClauseRef WhereClauseOID="WC.LB.LBORRES.RETIRBC"/>
        </ItemRef>
        <ItemRef ItemOID="IT.LB.LBORRES.SAQB" OrderNumber="55" Mandatory="No">
          <def:WhereClauseRef WhereClauseOID="WC.LB.LBORRES.SAQB"/>
        </ItemRef>
        <ItemRef ItemOID="IT.LB.LBORRES.SODIUM" OrderNumber="56" Mandatory="No">
          <def:WhereClauseRef WhereClauseOID="WC.LB.LBORRES.SODIUM"/>
        </ItemRef>
        <ItemRef ItemOID="IT.LB.LBORRES.SPGRAV" OrderNumber="57" Mandatory="No">
          <def:WhereClauseRef WhereClauseOID="WC.LB.LBORRES.SPGRAV"/>
        </ItemRef>
        <ItemRef ItemOID="IT.LB.LBORRES.TRIG" OrderNumber="58" Mandatory="No">
          <def:WhereClauseRef WhereClauseOID="WC.LB.LBORRES.TRIG"/>
        </ItemRef>
        <ItemRef ItemOID="IT.LB.LBORRES.UREAN" OrderNumber="59" Mandatory="No">
          <def:WhereClauseRef WhereClauseOID="WC.LB.LBORRES.UREAN"/>
        </ItemRef>
        <ItemRef ItemOID="IT.LB.LBORRES.UREANCRT" OrderNumber="60" Mandatory="No">
          <def:WhereClauseRef WhereClauseOID="WC.LB.LBORRES.UREANCRT"/>
        </ItemRef>
        <ItemRef ItemOID="IT.LB.LBORRES.WBC" OrderNumber="61" Mandatory="No">
          <def:WhereClauseRef WhereClauseOID="WC.LB.LBORRES.WBC"/>
        </ItemRef>
      </def:ValueListDef>
      <def:ValueListDef OID="VL.OM.OMORRES">
        <ItemRef ItemOID="IT.OM.OMORRES.LENGTH" OrderNumber="1" Mandatory="No">
          <def:WhereClauseRef WhereClauseOID="WC.OM.OMORRES.LENGTH"/>
        </ItemRef>
        <ItemRef ItemOID="IT.OM.OMORRES.OWBW" OrderNumber="2" Mandatory="No" MethodOID="MT.COMPOWBW">
          <def:WhereClauseRef WhereClauseOID="WC.OM.OMORRES.OWBW"/>
        </ItemRef>
        <ItemRef ItemOID="IT.OM.OMORRES.WEIGHT" OrderNumber="3" Mandatory="No">
          <def:WhereClauseRef WhereClauseOID="WC.OM.OMORRES.WEIGHT"/>
        </ItemRef>
      </def:ValueListDef>
      <def:ValueListDef OID="VL.SUPPCL.QVAL">
        <ItemRef ItemOID="IT.SUPPCL.QVAL.CLRESMOD" OrderNumber="1" Mandatory="No">
          <def:WhereClauseRef WhereClauseOID="WC.SUPPCL.QVAL.CLRESMOD"/>
        </ItemRef>
      </def:ValueListDef>
      <def:ValueListDef OID="VL.TS.TSVAL">
        <ItemRef ItemOID="IT.TS.TSVAL.AGE" OrderNumber="1" Mandatory="No">
          <def:WhereClauseRef WhereClauseOID="WC.TS.TSVAL.AGE"/>
        </ItemRef>
        <ItemRef ItemOID="IT.TS.TSVAL.AGEU" OrderNumber="2" Mandatory="No">
          <def:WhereClauseRef WhereClauseOID="WC.TS.TSVAL.AGEU"/>
        </ItemRef>
        <ItemRef ItemOID="IT.TS.TSVAL.BEDCHNG" OrderNumber="3" Mandatory="No">
          <def:WhereClauseRef WhereClauseOID="WC.TS.TSVAL.BEDCHNG"/>
        </ItemRef>
        <ItemRef ItemOID="IT.TS.TSVAL.BEDDING" OrderNumber="4" Mandatory="No">
          <def:WhereClauseRef WhereClauseOID="WC.TS.TSVAL.BEDDING"/>
        </ItemRef>
        <ItemRef ItemOID="IT.TS.TSVAL.DIET" OrderNumber="5" Mandatory="No">
          <def:WhereClauseRef WhereClauseOID="WC.TS.TSVAL.DIET"/>
        </ItemRef>
        <ItemRef ItemOID="IT.TS.TSVAL.DOSDUR" OrderNumber="6" Mandatory="No">
          <def:WhereClauseRef WhereClauseOID="WC.TS.TSVAL.DOSDUR"/>
        </ItemRef>
        <ItemRef ItemOID="IT.TS.TSVAL.DOSENDTC" OrderNumber="7" Mandatory="No">
          <def:WhereClauseRef WhereClauseOID="WC.TS.TSVAL.DOSENDTC"/>
        </ItemRef>
        <ItemRef ItemOID="IT.TS.TSVAL.DOSSTDTC" OrderNumber="8" Mandatory="No">
          <def:WhereClauseRef WhereClauseOID="WC.TS.TSVAL.DOSSTDTC"/>
        </ItemRef>
        <ItemRef ItemOID="IT.TS.TSVAL.ENVTEMP" OrderNumber="9" Mandatory="No">
          <def:WhereClauseRef WhereClauseOID="WC.TS.TSVAL.ENVTEMP"/>
        </ItemRef>
        <ItemRef ItemOID="IT.TS.TSVAL.ENVTEMPU" OrderNumber="10" Mandatory="No">
          <def:WhereClauseRef WhereClauseOID="WC.TS.TSVAL.ENVTEMPU"/>
        </ItemRef>
        <ItemRef ItemOID="IT.TS.TSVAL.EXPENDTC" OrderNumber="11" Mandatory="No">
          <def:WhereClauseRef WhereClauseOID="WC.TS.TSVAL.EXPENDTC"/>
        </ItemRef>
        <ItemRef ItemOID="IT.TS.TSVAL.EXPSTDTC" OrderNumber="12" Mandatory="No">
          <def:WhereClauseRef WhereClauseOID="WC.TS.TSVAL.EXPSTDTC"/>
        </ItemRef>
        <ItemRef ItemOID="IT.TS.TSVAL.FEEDREG" OrderNumber="13" Mandatory="No">
          <def:WhereClauseRef WhereClauseOID="WC.TS.TSVAL.FEEDREG"/>
        </ItemRef>
        <ItemRef ItemOID="IT.TS.TSVAL.GLPFL" OrderNumber="14" Mandatory="No">
          <def:WhereClauseRef WhereClauseOID="WC.TS.TSVAL.GLPFL"/>
        </ItemRef>
        <ItemRef ItemOID="IT.TS.TSVAL.GLPTYP" OrderNumber="15" Mandatory="No">
          <def:WhereClauseRef WhereClauseOID="WC.TS.TSVAL.GLPTYP"/>
        </ItemRef>
        <ItemRef ItemOID="IT.TS.TSVAL.HOUSEGRP" OrderNumber="16" Mandatory="No">
          <def:WhereClauseRef WhereClauseOID="WC.TS.TSVAL.HOUSEGRP"/>
        </ItemRef>
        <ItemRef ItemOID="IT.TS.TSVAL.HOUSETYP" OrderNumber="17" Mandatory="No">
          <def:WhereClauseRef WhereClauseOID="WC.TS.TSVAL.HOUSETYP"/>
        </ItemRef>
        <ItemRef ItemOID="IT.TS.TSVAL.HUMIDT" OrderNumber="18" Mandatory="No">
          <def:WhereClauseRef WhereClauseOID="WC.TS.TSVAL.HUMIDT"/>
        </ItemRef>
        <ItemRef ItemOID="IT.TS.TSVAL.HUMIDTU" OrderNumber="19" Mandatory="No">
          <def:WhereClauseRef WhereClauseOID="WC.TS.TSVAL.HUMIDTU"/>
        </ItemRef>
        <ItemRef ItemOID="IT.TS.TSVAL.IDMETH" OrderNumber="20" Mandatory="No">
          <def:WhereClauseRef WhereClauseOID="WC.TS.TSVAL.IDMETH"/>
        </ItemRef>
        <ItemRef ItemOID="IT.TS.TSVAL.LIGHT" OrderNumber="21" Mandatory="No">
          <def:WhereClauseRef WhereClauseOID="WC.TS.TSVAL.LIGHT"/>
        </ItemRef>
        <ItemRef ItemOID="IT.TS.TSVAL.MTHTRM" OrderNumber="22" Mandatory="No">
          <def:WhereClauseRef WhereClauseOID="WC.TS.TSVAL.MTHTRM"/>
        </ItemRef>
        <ItemRef ItemOID="IT.TS.TSVAL.PCLASS" OrderNumber="23" Mandatory="No">
          <def:WhereClauseRef WhereClauseOID="WC.TS.TSVAL.PCLASS"/>
        </ItemRef>
        <ItemRef ItemOID="IT.TS.TSVAL.RECSAC" OrderNumber="24" Mandatory="No">
          <def:WhereClauseRef WhereClauseOID="WC.TS.TSVAL.RECSAC"/>
        </ItemRef>
        <ItemRef ItemOID="IT.TS.TSVAL.ROUTE" OrderNumber="25" Mandatory="No">
          <def:WhereClauseRef WhereClauseOID="WC.TS.TSVAL.ROUTE"/>
        </ItemRef>
        <ItemRef ItemOID="IT.TS.TSVAL.SDESIGN" OrderNumber="26" Mandatory="No">
          <def:WhereClauseRef WhereClauseOID="WC.TS.TSVAL.SDESIGN"/>
        </ItemRef>
        <ItemRef ItemOID="IT.TS.TSVAL.SLENGTH" OrderNumber="27" Mandatory="No">
          <def:WhereClauseRef WhereClauseOID="WC.TS.TSVAL.SLENGTH"/>
        </ItemRef>
        <ItemRef ItemOID="IT.TS.TSVAL.SNDCTVER" OrderNumber="28" Mandatory="No">
          <def:WhereClauseRef WhereClauseOID="WC.TS.TSVAL.SNDCTVER"/>
        </ItemRef>
        <ItemRef ItemOID="IT.TS.TSVAL.SNDIGVER" OrderNumber="29" Mandatory="No">
          <def:WhereClauseRef WhereClauseOID="WC.TS.TSVAL.SNDIGVER"/>
        </ItemRef>
        <ItemRef ItemOID="IT.TS.TSVAL.SPECIES" OrderNumber="30" Mandatory="No">
          <def:WhereClauseRef WhereClauseOID="WC.TS.TSVAL.SPECIES"/>
        </ItemRef>
        <ItemRef ItemOID="IT.TS.TSVAL.SPLANSUB" OrderNumber="31" Mandatory="No">
          <def:WhereClauseRef WhereClauseOID="WC.TS.TSVAL.SPLANSUB"/>
        </ItemRef>
        <ItemRef ItemOID="IT.TS.TSVAL.SPLRLOC" OrderNumber="32" Mandatory="No">
          <def:WhereClauseRef WhereClauseOID="WC.TS.TSVAL.SPLRLOC"/>
        </ItemRef>
        <ItemRef ItemOID="IT.TS.TSVAL.SPLRNAM" OrderNumber="33" Mandatory="No">
          <def:WhereClauseRef WhereClauseOID="WC.TS.TSVAL.SPLRNAM"/>
        </ItemRef>
        <ItemRef ItemOID="IT.TS.TSVAL.SPREFID" OrderNumber="34" Mandatory="No">
          <def:WhereClauseRef WhereClauseOID="WC.TS.TSVAL.SPREFID"/>
        </ItemRef>
        <ItemRef ItemOID="IT.TS.TSVAL.SRANDOM" OrderNumber="35" Mandatory="No">
          <def:WhereClauseRef WhereClauseOID="WC.TS.TSVAL.SRANDOM"/>
        </ItemRef>
        <ItemRef ItemOID="IT.TS.TSVAL.SSPONSOR" OrderNumber="36" Mandatory="No">
          <def:WhereClauseRef WhereClauseOID="WC.TS.TSVAL.SSPONSOR"/>
        </ItemRef>
        <ItemRef ItemOID="IT.TS.TSVAL.SSTYP" OrderNumber="37" Mandatory="No">
          <def:WhereClauseRef WhereClauseOID="WC.TS.TSVAL.SSTYP"/>
        </ItemRef>
        <ItemRef ItemOID="IT.TS.TSVAL.STCAT" OrderNumber="38" Mandatory="No">
          <def:WhereClauseRef WhereClauseOID="WC.TS.TSVAL.STCAT"/>
        </ItemRef>
        <ItemRef ItemOID="IT.TS.TSVAL.STDIR" OrderNumber="39" Mandatory="No">
          <def:WhereClauseRef WhereClauseOID="WC.TS.TSVAL.STDIR"/>
        </ItemRef>
        <ItemRef ItemOID="IT.TS.TSVAL.STENDTC" OrderNumber="40" Mandatory="No">
          <def:WhereClauseRef WhereClauseOID="WC.TS.TSVAL.STENDTC"/>
        </ItemRef>
        <ItemRef ItemOID="IT.TS.TSVAL.STITLE" OrderNumber="41" Mandatory="No">
          <def:WhereClauseRef WhereClauseOID="WC.TS.TSVAL.STITLE"/>
        </ItemRef>
        <ItemRef ItemOID="IT.TS.TSVAL.STMON" OrderNumber="42" Mandatory="No">
          <def:WhereClauseRef WhereClauseOID="WC.TS.TSVAL.STMON"/>
        </ItemRef>
        <ItemRef ItemOID="IT.TS.TSVAL.STRAIN" OrderNumber="43" Mandatory="No">
          <def:WhereClauseRef WhereClauseOID="WC.TS.TSVAL.STRAIN"/>
        </ItemRef>
        <ItemRef ItemOID="IT.TS.TSVAL.STSTDTC" OrderNumber="44" Mandatory="No">
          <def:WhereClauseRef WhereClauseOID="WC.TS.TSVAL.STSTDTC"/>
        </ItemRef>
        <ItemRef ItemOID="IT.TS.TSVAL.TFCNTRY" OrderNumber="45" Mandatory="No">
          <def:WhereClauseRef WhereClauseOID="WC.TS.TSVAL.TFCNTRY"/>
        </ItemRef>
        <ItemRef ItemOID="IT.TS.TSVAL.TRMSAC" OrderNumber="46" Mandatory="No">
          <def:WhereClauseRef WhereClauseOID="WC.TS.TSVAL.TRMSAC"/>
        </ItemRef>
        <ItemRef ItemOID="IT.TS.TSVAL.TRT" OrderNumber="47" Mandatory="No">
          <def:WhereClauseRef WhereClauseOID="WC.TS.TSVAL.TRT"/>
        </ItemRef>
        <ItemRef ItemOID="IT.TS.TSVAL.TRTCAS" OrderNumber="48" Mandatory="No">
          <def:WhereClauseRef WhereClauseOID="WC.TS.TSVAL.TRTCAS"/>
        </ItemRef>
        <ItemRef ItemOID="IT.TS.TSVAL.TRTUNII" OrderNumber="49" Mandatory="No">
          <def:WhereClauseRef WhereClauseOID="WC.TS.TSVAL.TRTUNII"/>
        </ItemRef>
        <ItemRef ItemOID="IT.TS.TSVAL.TRTV" OrderNumber="50" Mandatory="No">
          <def:WhereClauseRef WhereClauseOID="WC.TS.TSVAL.TRTV"/>
        </ItemRef>
        <ItemRef ItemOID="IT.TS.TSVAL.TSTFLOC" OrderNumber="51" Mandatory="No">
          <def:WhereClauseRef WhereClauseOID="WC.TS.TSVAL.TSTFLOC"/>
        </ItemRef>
        <ItemRef ItemOID="IT.TS.TSVAL.TSTFNAM" OrderNumber="52" Mandatory="No">
          <def:WhereClauseRef WhereClauseOID="WC.TS.TSVAL.TSTFNAM"/>
        </ItemRef>
        <ItemRef ItemOID="IT.TS.TSVAL.WATER" OrderNumber="53" Mandatory="No">
          <def:WhereClauseRef WhereClauseOID="WC.TS.TSVAL.WATER"/>
        </ItemRef>
        <ItemRef ItemOID="IT.TS.TSVAL.WTRDLVRY" OrderNumber="54" Mandatory="No">
          <def:WhereClauseRef WhereClauseOID="WC.TS.TSVAL.WTRDLVRY"/>
        </ItemRef>
      </def:ValueListDef>
      <def:ValueListDef OID="VL.TX.TXVAL">
        <ItemRef ItemOID="IT.TX.TXVAL.ARMCD" OrderNumber="1" Mandatory="No">
          <def:WhereClauseRef WhereClauseOID="WC.TX.TXVAL.ARMCD"/>
        </ItemRef>
        <ItemRef ItemOID="IT.TX.TXVAL.GRPLBL" OrderNumber="2" Mandatory="No">
          <def:WhereClauseRef WhereClauseOID="WC.TX.TXVAL.GRPLBL"/>
        </ItemRef>
        <ItemRef ItemOID="IT.TX.TXVAL.PLANFSUB" OrderNumber="3" Mandatory="No">
          <def:WhereClauseRef WhereClauseOID="WC.TX.TXVAL.PLANFSUB"/>
        </ItemRef>
        <ItemRef ItemOID="IT.TX.TXVAL.PLANMSUB" OrderNumber="4" Mandatory="No">
          <def:WhereClauseRef WhereClauseOID="WC.TX.TXVAL.PLANMSUB"/>
        </ItemRef>
        <ItemRef ItemOID="IT.TX.TXVAL.SETLBL" OrderNumber="5" Mandatory="No">
          <def:WhereClauseRef WhereClauseOID="WC.TX.TXVAL.SETLBL"/>
        </ItemRef>
        <ItemRef ItemOID="IT.TX.TXVAL.SEXPOP" OrderNumber="6" Mandatory="No">
          <def:WhereClauseRef WhereClauseOID="WC.TX.TXVAL.SEXPOP"/>
        </ItemRef>
        <ItemRef ItemOID="IT.TX.TXVAL.SPGRPCD" OrderNumber="7" Mandatory="No">
          <def:WhereClauseRef WhereClauseOID="WC.TX.TXVAL.SPGRPCD"/>
        </ItemRef>
        <ItemRef ItemOID="IT.TX.TXVAL.SPLANSUB" OrderNumber="8" Mandatory="No">
          <def:WhereClauseRef WhereClauseOID="WC.TX.TXVAL.SPLANSUB"/>
        </ItemRef>
        <ItemRef ItemOID="IT.TX.TXVAL.TCNTRL" OrderNumber="9" Mandatory="No">
          <def:WhereClauseRef WhereClauseOID="WC.TX.TXVAL.TCNTRL"/>
        </ItemRef>
        <ItemRef ItemOID="IT.TX.TXVAL.TKDESC" OrderNumber="10" Mandatory="No">
          <def:WhereClauseRef WhereClauseOID="WC.TX.TXVAL.TKDESC"/>
        </ItemRef>
        <ItemRef ItemOID="IT.TX.TXVAL.TRTDOS" OrderNumber="11" Mandatory="No">
          <def:WhereClauseRef WhereClauseOID="WC.TX.TXVAL.TRTDOS"/>
        </ItemRef>
        <ItemRef ItemOID="IT.TX.TXVAL.TRTDOSU" OrderNumber="12" Mandatory="No">
          <def:WhereClauseRef WhereClauseOID="WC.TX.TXVAL.TRTDOSU"/>
        </ItemRef>
      </def:ValueListDef>
      <def:WhereClauseDef OID="WC.BW.BWORRES._318">
        <RangeCheck SoftHard="Soft" def:ItemOID="IT.BW.BWTESTCD" Comparator="EQ">
          <CheckValue>318</CheckValue>
        </RangeCheck>
      </def:WhereClauseDef>
      <def:WhereClauseDef OID="WC.BW.BWORRES.BW">
        <RangeCheck SoftHard="Soft" def:ItemOID="IT.BW.BWTESTCD" Comparator="EQ">
          <CheckValue>BW</CheckValue>
        </RangeCheck>
      </def:WhereClauseDef>
      <def:WhereClauseDef OID="WC.BW.BWORRES.TERMBW">
        <RangeCheck SoftHard="Soft" def:ItemOID="IT.BW.BWTESTCD" Comparator="EQ">
          <CheckValue>TERMBW</CheckValue>
        </RangeCheck>
      </def:WhereClauseDef>
      <def:WhereClauseDef OID="WC.DP.DPORRES.PREPUTSE">
        <RangeCheck SoftHard="Soft" def:ItemOID="IT.DP.DPTESTCD" Comparator="EQ">
          <CheckValue>PREPUTSEP</CheckValue>
        </RangeCheck>
      </def:WhereClauseDef>
      <def:WhereClauseDef OID="WC.DP.DPORRES.VAGOPEN">
        <RangeCheck SoftHard="Soft" def:ItemOID="IT.DP.DPTESTCD" Comparator="EQ">
          <CheckValue>VAGOPEN</CheckValue>
        </RangeCheck>
      </def:WhereClauseDef>
      <def:WhereClauseDef OID="WC.DP.DPSTRESC.PREPUTSE">
        <RangeCheck SoftHard="Soft" def:ItemOID="IT.DP.DPTESTCD" Comparator="EQ">
          <CheckValue>PREPUTSEP</CheckValue>
        </RangeCheck>
      </def:WhereClauseDef>
      <def:WhereClauseDef OID="WC.DP.DPSTRESC.VAGOPEN">
        <RangeCheck SoftHard="Soft" def:ItemOID="IT.DP.DPTESTCD" Comparator="EQ">
          <CheckValue>VAGOPEN</CheckValue>
        </RangeCheck>
      </def:WhereClauseDef>
      <def:WhereClauseDef OID="WC.FW.FWORRES.FC">
        <RangeCheck SoftHard="Soft" def:ItemOID="IT.FW.FWTESTCD" Comparator="EQ">
          <CheckValue>FC</CheckValue>
        </RangeCheck>
      </def:WhereClauseDef>
      <def:WhereClauseDef OID="WC.FW.FWSTRESC.FC">
        <RangeCheck SoftHard="Soft" def:ItemOID="IT.FW.FWTESTCD" Comparator="EQ">
          <CheckValue>FC</CheckValue>
        </RangeCheck>
      </def:WhereClauseDef>
      <def:WhereClauseDef OID="WC.LB.LBORRES.ALB">
        <RangeCheck SoftHard="Soft" def:ItemOID="IT.LB.LBTESTCD" Comparator="EQ">
          <CheckValue>ALB</CheckValue>
        </RangeCheck>
        <RangeCheck SoftHard="Soft" def:ItemOID="IT.LB.LBSPEC" Comparator="EQ">
          <CheckValue>SERUM</CheckValue>
        </RangeCheck>
        <RangeCheck SoftHard="Soft" def:ItemOID="IT.LB.LBCAT" Comparator="EQ">
          <CheckValue>CLINICAL CHEMISTRY</CheckValue>
        </RangeCheck>
        <RangeCheck SoftHard="Soft" def:ItemOID="IT.LB.LBMETHOD" Comparator="EQ">
          <CheckValue> </CheckValue>
        </RangeCheck>
      </def:WhereClauseDef>
      <def:WhereClauseDef OID="WC.LB.LBORRES.ALBGLOB">
        <RangeCheck SoftHard="Soft" def:ItemOID="IT.LB.LBTESTCD" Comparator="EQ">
          <CheckValue>ALBGLOB</CheckValue>
        </RangeCheck>
        <RangeCheck SoftHard="Soft" def:ItemOID="IT.LB.LBSPEC" Comparator="EQ">
          <CheckValue>SERUM</CheckValue>
        </RangeCheck>
        <RangeCheck SoftHard="Soft" def:ItemOID="IT.LB.LBCAT" Comparator="EQ">
          <CheckValue>CLINICAL CHEMISTRY</CheckValue>
        </RangeCheck>
        <RangeCheck SoftHard="Soft" def:ItemOID="IT.LB.LBMETHOD" Comparator="EQ">
          <CheckValue> </CheckValue>
        </RangeCheck>
      </def:WhereClauseDef>
      <def:WhereClauseDef OID="WC.LB.LBORRES.ALP">
        <RangeCheck SoftHard="Soft" def:ItemOID="IT.LB.LBTESTCD" Comparator="EQ">
          <CheckValue>ALP</CheckValue>
        </RangeCheck>
        <RangeCheck SoftHard="Soft" def:ItemOID="IT.LB.LBSPEC" Comparator="EQ">
          <CheckValue>SERUM</CheckValue>
        </RangeCheck>
        <RangeCheck SoftHard="Soft" def:ItemOID="IT.LB.LBCAT" Comparator="EQ">
          <CheckValue>CLINICAL CHEMISTRY</CheckValue>
        </RangeCheck>
        <RangeCheck SoftHard="Soft" def:ItemOID="IT.LB.LBMETHOD" Comparator="EQ">
          <CheckValue> </CheckValue>
        </RangeCheck>
      </def:WhereClauseDef>
      <def:WhereClauseDef OID="WC.LB.LBORRES.ALT">
        <RangeCheck SoftHard="Soft" def:ItemOID="IT.LB.LBTESTCD" Comparator="EQ">
          <CheckValue>ALT</CheckValue>
        </RangeCheck>
        <RangeCheck SoftHard="Soft" def:ItemOID="IT.LB.LBSPEC" Comparator="EQ">
          <CheckValue>SERUM</CheckValue>
        </RangeCheck>
        <RangeCheck SoftHard="Soft" def:ItemOID="IT.LB.LBCAT" Comparator="EQ">
          <CheckValue>CLINICAL CHEMISTRY</CheckValue>
        </RangeCheck>
        <RangeCheck SoftHard="Soft" def:ItemOID="IT.LB.LBMETHOD" Comparator="EQ">
          <CheckValue> </CheckValue>
        </RangeCheck>
      </def:WhereClauseDef>
      <def:WhereClauseDef OID="WC.LB.LBORRES.ALTAST">
        <RangeCheck SoftHard="Soft" def:ItemOID="IT.LB.LBTESTCD" Comparator="EQ">
          <CheckValue>ALTAST</CheckValue>
        </RangeCheck>
        <RangeCheck SoftHard="Soft" def:ItemOID="IT.LB.LBSPEC" Comparator="EQ">
          <CheckValue>SERUM</CheckValue>
        </RangeCheck>
        <RangeCheck SoftHard="Soft" def:ItemOID="IT.LB.LBCAT" Comparator="EQ">
          <CheckValue>CLINICAL CHEMISTRY</CheckValue>
        </RangeCheck>
        <RangeCheck SoftHard="Soft" def:ItemOID="IT.LB.LBMETHOD" Comparator="EQ">
          <CheckValue> </CheckValue>
        </RangeCheck>
      </def:WhereClauseDef>
      <def:WhereClauseDef OID="WC.LB.LBORRES.APTT">
        <RangeCheck SoftHard="Soft" def:ItemOID="IT.LB.LBTESTCD" Comparator="EQ">
          <CheckValue>APTT</CheckValue>
        </RangeCheck>
        <RangeCheck SoftHard="Soft" def:ItemOID="IT.LB.LBSPEC" Comparator="EQ">
          <CheckValue>PLASMA</CheckValue>
        </RangeCheck>
        <RangeCheck SoftHard="Soft" def:ItemOID="IT.LB.LBCAT" Comparator="EQ">
          <CheckValue>COAGULATION</CheckValue>
        </RangeCheck>
        <RangeCheck SoftHard="Soft" def:ItemOID="IT.LB.LBMETHOD" Comparator="EQ">
          <CheckValue> </CheckValue>
        </RangeCheck>
      </def:WhereClauseDef>
      <def:WhereClauseDef OID="WC.LB.LBORRES.AST">
        <RangeCheck SoftHard="Soft" def:ItemOID="IT.LB.LBTESTCD" Comparator="EQ">
          <CheckValue>AST</CheckValue>
        </RangeCheck>
        <RangeCheck SoftHard="Soft" def:ItemOID="IT.LB.LBSPEC" Comparator="EQ">
          <CheckValue>SERUM</CheckValue>
        </RangeCheck>
        <RangeCheck SoftHard="Soft" def:ItemOID="IT.LB.LBCAT" Comparator="EQ">
          <CheckValue>CLINICAL CHEMISTRY</CheckValue>
        </RangeCheck>
        <RangeCheck SoftHard="Soft" def:ItemOID="IT.LB.LBMETHOD" Comparator="EQ">
          <CheckValue> </CheckValue>
        </RangeCheck>
      </def:WhereClauseDef>
      <def:WhereClauseDef OID="WC.LB.LBORRES.BASO">
        <RangeCheck SoftHard="Soft" def:ItemOID="IT.LB.LBTESTCD" Comparator="EQ">
          <CheckValue>BASO</CheckValue>
        </RangeCheck>
        <RangeCheck SoftHard="Soft" def:ItemOID="IT.LB.LBSPEC" Comparator="EQ">
          <CheckValue>WHOLE BLOOD</CheckValue>
        </RangeCheck>
        <RangeCheck SoftHard="Soft" def:ItemOID="IT.LB.LBCAT" Comparator="EQ">
          <CheckValue>HEMATOLOGY</CheckValue>
        </RangeCheck>
        <RangeCheck SoftHard="Soft" def:ItemOID="IT.LB.LBMETHOD" Comparator="EQ">
          <CheckValue>Calculated</CheckValue>
        </RangeCheck>
      </def:WhereClauseDef>
      <def:WhereClauseDef OID="WC.LB.LBORRES.BASOLE">
        <RangeCheck SoftHard="Soft" def:ItemOID="IT.LB.LBTESTCD" Comparator="EQ">
          <CheckValue>BASOLE</CheckValue>
        </RangeCheck>
        <RangeCheck SoftHard="Soft" def:ItemOID="IT.LB.LBSPEC" Comparator="EQ">
          <CheckValue>WHOLE BLOOD</CheckValue>
        </RangeCheck>
        <RangeCheck SoftHard="Soft" def:ItemOID="IT.LB.LBCAT" Comparator="EQ">
          <CheckValue>HEMATOLOGY</CheckValue>
        </RangeCheck>
        <RangeCheck SoftHard="Soft" def:ItemOID="IT.LB.LBMETHOD" Comparator="EQ">
          <CheckValue>Light Scattering Spectroscopy</CheckValue>
        </RangeCheck>
      </def:WhereClauseDef>
      <def:WhereClauseDef OID="WC.LB.LBORRES.BILI1">
        <RangeCheck SoftHard="Soft" def:ItemOID="IT.LB.LBTESTCD" Comparator="EQ">
          <CheckValue>BILI</CheckValue>
        </RangeCheck>
        <RangeCheck SoftHard="Soft" def:ItemOID="IT.LB.LBSPEC" Comparator="EQ">
          <CheckValue>SERUM</CheckValue>
        </RangeCheck>
        <RangeCheck SoftHard="Soft" def:ItemOID="IT.LB.LBCAT" Comparator="EQ">
          <CheckValue>CLINICAL CHEMISTRY</CheckValue>
        </RangeCheck>
        <RangeCheck SoftHard="Soft" def:ItemOID="IT.LB.LBMETHOD" Comparator="EQ">
          <CheckValue> </CheckValue>
        </RangeCheck>
      </def:WhereClauseDef>
      <def:WhereClauseDef OID="WC.LB.LBORRES.BILI2">
        <RangeCheck SoftHard="Soft" def:ItemOID="IT.LB.LBTESTCD" Comparator="EQ">
          <CheckValue>BILI</CheckValue>
        </RangeCheck>
        <RangeCheck SoftHard="Soft" def:ItemOID="IT.LB.LBSPEC" Comparator="EQ">
          <CheckValue>URINE</CheckValue>
        </RangeCheck>
        <RangeCheck SoftHard="Soft" def:ItemOID="IT.LB.LBCAT" Comparator="EQ">
          <CheckValue>URINALYSIS</CheckValue>
        </RangeCheck>
        <RangeCheck SoftHard="Soft" def:ItemOID="IT.LB.LBMETHOD" Comparator="EQ">
          <CheckValue> </CheckValue>
        </RangeCheck>
      </def:WhereClauseDef>
      <def:WhereClauseDef OID="WC.LB.LBORRES.CA">
        <RangeCheck SoftHard="Soft" def:ItemOID="IT.LB.LBTESTCD" Comparator="EQ">
          <CheckValue>CA</CheckValue>
        </RangeCheck>
        <RangeCheck SoftHard="Soft" def:ItemOID="IT.LB.LBSPEC" Comparator="EQ">
          <CheckValue>SERUM</CheckValue>
        </RangeCheck>
        <RangeCheck SoftHard="Soft" def:ItemOID="IT.LB.LBCAT" Comparator="EQ">
          <CheckValue>CLINICAL CHEMISTRY</CheckValue>
        </RangeCheck>
        <RangeCheck SoftHard="Soft" def:ItemOID="IT.LB.LBMETHOD" Comparator="EQ">
          <CheckValue> </CheckValue>
        </RangeCheck>
      </def:WhereClauseDef>
      <def:WhereClauseDef OID="WC.LB.LBORRES.CACREAT">
        <RangeCheck SoftHard="Soft" def:ItemOID="IT.LB.LBTESTCD" Comparator="EQ">
          <CheckValue>CACREAT</CheckValue>
        </RangeCheck>
        <RangeCheck SoftHard="Soft" def:ItemOID="IT.LB.LBSPEC" Comparator="EQ">
          <CheckValue>SERUM</CheckValue>
        </RangeCheck>
        <RangeCheck SoftHard="Soft" def:ItemOID="IT.LB.LBCAT" Comparator="EQ">
          <CheckValue>CLINICAL CHEMISTRY</CheckValue>
        </RangeCheck>
        <RangeCheck SoftHard="Soft" def:ItemOID="IT.LB.LBMETHOD" Comparator="EQ">
          <CheckValue> </CheckValue>
        </RangeCheck>
      </def:WhereClauseDef>
      <def:WhereClauseDef OID="WC.LB.LBORRES.CAPHOS">
        <RangeCheck SoftHard="Soft" def:ItemOID="IT.LB.LBTESTCD" Comparator="EQ">
          <CheckValue>CAPHOS</CheckValue>
        </RangeCheck>
        <RangeCheck SoftHard="Soft" def:ItemOID="IT.LB.LBSPEC" Comparator="EQ">
          <CheckValue>SERUM</CheckValue>
        </RangeCheck>
        <RangeCheck SoftHard="Soft" def:ItemOID="IT.LB.LBCAT" Comparator="EQ">
          <CheckValue>CLINICAL CHEMISTRY</CheckValue>
        </RangeCheck>
        <RangeCheck SoftHard="Soft" def:ItemOID="IT.LB.LBMETHOD" Comparator="EQ">
          <CheckValue> </CheckValue>
        </RangeCheck>
      </def:WhereClauseDef>
      <def:WhereClauseDef OID="WC.LB.LBORRES.CHOL">
        <RangeCheck SoftHard="Soft" def:ItemOID="IT.LB.LBTESTCD" Comparator="EQ">
          <CheckValue>CHOL</CheckValue>
        </RangeCheck>
        <RangeCheck SoftHard="Soft" def:ItemOID="IT.LB.LBSPEC" Comparator="EQ">
          <CheckValue>SERUM</CheckValue>
        </RangeCheck>
        <RangeCheck SoftHard="Soft" def:ItemOID="IT.LB.LBCAT" Comparator="EQ">
          <CheckValue>CLINICAL CHEMISTRY</CheckValue>
        </RangeCheck>
        <RangeCheck SoftHard="Soft" def:ItemOID="IT.LB.LBMETHOD" Comparator="EQ">
          <CheckValue> </CheckValue>
        </RangeCheck>
      </def:WhereClauseDef>
      <def:WhereClauseDef OID="WC.LB.LBORRES.CL">
        <RangeCheck SoftHard="Soft" def:ItemOID="IT.LB.LBTESTCD" Comparator="EQ">
          <CheckValue>CL</CheckValue>
        </RangeCheck>
        <RangeCheck SoftHard="Soft" def:ItemOID="IT.LB.LBSPEC" Comparator="EQ">
          <CheckValue>SERUM</CheckValue>
        </RangeCheck>
        <RangeCheck SoftHard="Soft" def:ItemOID="IT.LB.LBCAT" Comparator="EQ">
          <CheckValue>CLINICAL CHEMISTRY</CheckValue>
        </RangeCheck>
        <RangeCheck SoftHard="Soft" def:ItemOID="IT.LB.LBMETHOD" Comparator="EQ">
          <CheckValue> </CheckValue>
        </RangeCheck>
      </def:WhereClauseDef>
      <def:WhereClauseDef OID="WC.LB.LBORRES.CLARITY">
        <RangeCheck SoftHard="Soft" def:ItemOID="IT.LB.LBTESTCD" Comparator="EQ">
          <CheckValue>CLARITY</CheckValue>
        </RangeCheck>
        <RangeCheck SoftHard="Soft" def:ItemOID="IT.LB.LBSPEC" Comparator="EQ">
          <CheckValue>URINE</CheckValue>
        </RangeCheck>
        <RangeCheck SoftHard="Soft" def:ItemOID="IT.LB.LBCAT" Comparator="EQ">
          <CheckValue>URINALYSIS</CheckValue>
        </RangeCheck>
        <RangeCheck SoftHard="Soft" def:ItemOID="IT.LB.LBMETHOD" Comparator="EQ">
          <CheckValue> </CheckValue>
        </RangeCheck>
      </def:WhereClauseDef>
      <def:WhereClauseDef OID="WC.LB.LBORRES.COLOR">
        <RangeCheck SoftHard="Soft" def:ItemOID="IT.LB.LBTESTCD" Comparator="EQ">
          <CheckValue>COLOR</CheckValue>
        </RangeCheck>
        <RangeCheck SoftHard="Soft" def:ItemOID="IT.LB.LBSPEC" Comparator="EQ">
          <CheckValue>URINE</CheckValue>
        </RangeCheck>
        <RangeCheck SoftHard="Soft" def:ItemOID="IT.LB.LBCAT" Comparator="EQ">
          <CheckValue>URINALYSIS</CheckValue>
        </RangeCheck>
        <RangeCheck SoftHard="Soft" def:ItemOID="IT.LB.LBMETHOD" Comparator="EQ">
          <CheckValue> </CheckValue>
        </RangeCheck>
      </def:WhereClauseDef>
      <def:WhereClauseDef OID="WC.LB.LBORRES.CREAT">
        <RangeCheck SoftHard="Soft" def:ItemOID="IT.LB.LBTESTCD" Comparator="EQ">
          <CheckValue>CREAT</CheckValue>
        </RangeCheck>
        <RangeCheck SoftHard="Soft" def:ItemOID="IT.LB.LBSPEC" Comparator="EQ">
          <CheckValue>SERUM</CheckValue>
        </RangeCheck>
        <RangeCheck SoftHard="Soft" def:ItemOID="IT.LB.LBCAT" Comparator="EQ">
          <CheckValue>CLINICAL CHEMISTRY</CheckValue>
        </RangeCheck>
        <RangeCheck SoftHard="Soft" def:ItemOID="IT.LB.LBMETHOD" Comparator="EQ">
          <CheckValue> </CheckValue>
        </RangeCheck>
      </def:WhereClauseDef>
      <def:WhereClauseDef OID="WC.LB.LBORRES.EOS">
        <RangeCheck SoftHard="Soft" def:ItemOID="IT.LB.LBTESTCD" Comparator="EQ">
          <CheckValue>EOS</CheckValue>
        </RangeCheck>
        <RangeCheck SoftHard="Soft" def:ItemOID="IT.LB.LBSPEC" Comparator="EQ">
          <CheckValue>WHOLE BLOOD</CheckValue>
        </RangeCheck>
        <RangeCheck SoftHard="Soft" def:ItemOID="IT.LB.LBCAT" Comparator="EQ">
          <CheckValue>HEMATOLOGY</CheckValue>
        </RangeCheck>
        <RangeCheck SoftHard="Soft" def:ItemOID="IT.LB.LBMETHOD" Comparator="EQ">
          <CheckValue>Calculated</CheckValue>
        </RangeCheck>
      </def:WhereClauseDef>
      <def:WhereClauseDef OID="WC.LB.LBORRES.EOSLE">
        <RangeCheck SoftHard="Soft" def:ItemOID="IT.LB.LBTESTCD" Comparator="EQ">
          <CheckValue>EOSLE</CheckValue>
        </RangeCheck>
        <RangeCheck SoftHard="Soft" def:ItemOID="IT.LB.LBSPEC" Comparator="EQ">
          <CheckValue>WHOLE BLOOD</CheckValue>
        </RangeCheck>
        <RangeCheck SoftHard="Soft" def:ItemOID="IT.LB.LBCAT" Comparator="EQ">
          <CheckValue>HEMATOLOGY</CheckValue>
        </RangeCheck>
        <RangeCheck SoftHard="Soft" def:ItemOID="IT.LB.LBMETHOD" Comparator="EQ">
          <CheckValue>Light Scattering Spectroscopy</CheckValue>
        </RangeCheck>
      </def:WhereClauseDef>
      <def:WhereClauseDef OID="WC.LB.LBORRES.FIBRINO">
        <RangeCheck SoftHard="Soft" def:ItemOID="IT.LB.LBTESTCD" Comparator="EQ">
          <CheckValue>FIBRINO</CheckValue>
        </RangeCheck>
        <RangeCheck SoftHard="Soft" def:ItemOID="IT.LB.LBSPEC" Comparator="EQ">
          <CheckValue>PLASMA</CheckValue>
        </RangeCheck>
        <RangeCheck SoftHard="Soft" def:ItemOID="IT.LB.LBCAT" Comparator="EQ">
          <CheckValue>COAGULATION</CheckValue>
        </RangeCheck>
        <RangeCheck SoftHard="Soft" def:ItemOID="IT.LB.LBMETHOD" Comparator="EQ">
          <CheckValue> </CheckValue>
        </RangeCheck>
      </def:WhereClauseDef>
      <def:WhereClauseDef OID="WC.LB.LBORRES.GGT">
        <RangeCheck SoftHard="Soft" def:ItemOID="IT.LB.LBTESTCD" Comparator="EQ">
          <CheckValue>GGT</CheckValue>
        </RangeCheck>
        <RangeCheck SoftHard="Soft" def:ItemOID="IT.LB.LBSPEC" Comparator="EQ">
          <CheckValue>SERUM</CheckValue>
        </RangeCheck>
        <RangeCheck SoftHard="Soft" def:ItemOID="IT.LB.LBCAT" Comparator="EQ">
          <CheckValue>CLINICAL CHEMISTRY</CheckValue>
        </RangeCheck>
        <RangeCheck SoftHard="Soft" def:ItemOID="IT.LB.LBMETHOD" Comparator="EQ">
          <CheckValue> </CheckValue>
        </RangeCheck>
      </def:WhereClauseDef>
      <def:WhereClauseDef OID="WC.LB.LBORRES.GLOBUL">
        <RangeCheck SoftHard="Soft" def:ItemOID="IT.LB.LBTESTCD" Comparator="EQ">
          <CheckValue>GLOBUL</CheckValue>
        </RangeCheck>
        <RangeCheck SoftHard="Soft" def:ItemOID="IT.LB.LBSPEC" Comparator="EQ">
          <CheckValue>SERUM</CheckValue>
        </RangeCheck>
        <RangeCheck SoftHard="Soft" def:ItemOID="IT.LB.LBCAT" Comparator="EQ">
          <CheckValue>CLINICAL CHEMISTRY</CheckValue>
        </RangeCheck>
        <RangeCheck SoftHard="Soft" def:ItemOID="IT.LB.LBMETHOD" Comparator="EQ">
          <CheckValue> </CheckValue>
        </RangeCheck>
      </def:WhereClauseDef>
      <def:WhereClauseDef OID="WC.LB.LBORRES.GLUC1">
        <RangeCheck SoftHard="Soft" def:ItemOID="IT.LB.LBTESTCD" Comparator="EQ">
          <CheckValue>GLUC</CheckValue>
        </RangeCheck>
        <RangeCheck SoftHard="Soft" def:ItemOID="IT.LB.LBSPEC" Comparator="EQ">
          <CheckValue>SERUM</CheckValue>
        </RangeCheck>
        <RangeCheck SoftHard="Soft" def:ItemOID="IT.LB.LBCAT" Comparator="EQ">
          <CheckValue>CLINICAL CHEMISTRY</CheckValue>
        </RangeCheck>
        <RangeCheck SoftHard="Soft" def:ItemOID="IT.LB.LBMETHOD" Comparator="EQ">
          <CheckValue> </CheckValue>
        </RangeCheck>
      </def:WhereClauseDef>
      <def:WhereClauseDef OID="WC.LB.LBORRES.GLUC2">
        <RangeCheck SoftHard="Soft" def:ItemOID="IT.LB.LBTESTCD" Comparator="EQ">
          <CheckValue>GLUC</CheckValue>
        </RangeCheck>
        <RangeCheck SoftHard="Soft" def:ItemOID="IT.LB.LBSPEC" Comparator="EQ">
          <CheckValue>URINE</CheckValue>
        </RangeCheck>
        <RangeCheck SoftHard="Soft" def:ItemOID="IT.LB.LBCAT" Comparator="EQ">
          <CheckValue>URINALYSIS</CheckValue>
        </RangeCheck>
        <RangeCheck SoftHard="Soft" def:ItemOID="IT.LB.LBMETHOD" Comparator="EQ">
          <CheckValue> </CheckValue>
        </RangeCheck>
      </def:WhereClauseDef>
      <def:WhereClauseDef OID="WC.LB.LBORRES.HCT">
        <RangeCheck SoftHard="Soft" def:ItemOID="IT.LB.LBTESTCD" Comparator="EQ">
          <CheckValue>HCT</CheckValue>
        </RangeCheck>
        <RangeCheck SoftHard="Soft" def:ItemOID="IT.LB.LBSPEC" Comparator="EQ">
          <CheckValue>WHOLE BLOOD</CheckValue>
        </RangeCheck>
        <RangeCheck SoftHard="Soft" def:ItemOID="IT.LB.LBCAT" Comparator="EQ">
          <CheckValue>HEMATOLOGY</CheckValue>
        </RangeCheck>
        <RangeCheck SoftHard="Soft" def:ItemOID="IT.LB.LBMETHOD" Comparator="EQ">
          <CheckValue>Calculated</CheckValue>
        </RangeCheck>
      </def:WhereClauseDef>
      <def:WhereClauseDef OID="WC.LB.LBORRES.HGB">
        <RangeCheck SoftHard="Soft" def:ItemOID="IT.LB.LBTESTCD" Comparator="EQ">
          <CheckValue>HGB</CheckValue>
        </RangeCheck>
        <RangeCheck SoftHard="Soft" def:ItemOID="IT.LB.LBSPEC" Comparator="EQ">
          <CheckValue>WHOLE BLOOD</CheckValue>
        </RangeCheck>
        <RangeCheck SoftHard="Soft" def:ItemOID="IT.LB.LBCAT" Comparator="EQ">
          <CheckValue>HEMATOLOGY</CheckValue>
        </RangeCheck>
        <RangeCheck SoftHard="Soft" def:ItemOID="IT.LB.LBMETHOD" Comparator="EQ">
          <CheckValue>Colorimetric</CheckValue>
        </RangeCheck>
      </def:WhereClauseDef>
      <def:WhereClauseDef OID="WC.LB.LBORRES.K">
        <RangeCheck SoftHard="Soft" def:ItemOID="IT.LB.LBTESTCD" Comparator="EQ">
          <CheckValue>K</CheckValue>
        </RangeCheck>
        <RangeCheck SoftHard="Soft" def:ItemOID="IT.LB.LBSPEC" Comparator="EQ">
          <CheckValue>SERUM</CheckValue>
        </RangeCheck>
        <RangeCheck SoftHard="Soft" def:ItemOID="IT.LB.LBCAT" Comparator="EQ">
          <CheckValue>CLINICAL CHEMISTRY</CheckValue>
        </RangeCheck>
        <RangeCheck SoftHard="Soft" def:ItemOID="IT.LB.LBMETHOD" Comparator="EQ">
          <CheckValue> </CheckValue>
        </RangeCheck>
      </def:WhereClauseDef>
      <def:WhereClauseDef OID="WC.LB.LBORRES.KETONES">
        <RangeCheck SoftHard="Soft" def:ItemOID="IT.LB.LBTESTCD" Comparator="EQ">
          <CheckValue>KETONES</CheckValue>
        </RangeCheck>
        <RangeCheck SoftHard="Soft" def:ItemOID="IT.LB.LBSPEC" Comparator="EQ">
          <CheckValue>URINE</CheckValue>
        </RangeCheck>
        <RangeCheck SoftHard="Soft" def:ItemOID="IT.LB.LBCAT" Comparator="EQ">
          <CheckValue>URINALYSIS</CheckValue>
        </RangeCheck>
        <RangeCheck SoftHard="Soft" def:ItemOID="IT.LB.LBMETHOD" Comparator="EQ">
          <CheckValue> </CheckValue>
        </RangeCheck>
      </def:WhereClauseDef>
      <def:WhereClauseDef OID="WC.LB.LBORRES.LGLUCLE">
        <RangeCheck SoftHard="Soft" def:ItemOID="IT.LB.LBTESTCD" Comparator="EQ">
          <CheckValue>LGLUCLE</CheckValue>
        </RangeCheck>
        <RangeCheck SoftHard="Soft" def:ItemOID="IT.LB.LBSPEC" Comparator="EQ">
          <CheckValue>WHOLE BLOOD</CheckValue>
        </RangeCheck>
        <RangeCheck SoftHard="Soft" def:ItemOID="IT.LB.LBCAT" Comparator="EQ">
          <CheckValue>HEMATOLOGY</CheckValue>
        </RangeCheck>
        <RangeCheck SoftHard="Soft" def:ItemOID="IT.LB.LBMETHOD" Comparator="EQ">
          <CheckValue>Light Scattering Spectroscopy</CheckValue>
        </RangeCheck>
      </def:WhereClauseDef>
      <def:WhereClauseDef OID="WC.LB.LBORRES.LGUNSCE">
        <RangeCheck SoftHard="Soft" def:ItemOID="IT.LB.LBTESTCD" Comparator="EQ">
          <CheckValue>LGUNSCE</CheckValue>
        </RangeCheck>
        <RangeCheck SoftHard="Soft" def:ItemOID="IT.LB.LBSPEC" Comparator="EQ">
          <CheckValue>WHOLE BLOOD</CheckValue>
        </RangeCheck>
        <RangeCheck SoftHard="Soft" def:ItemOID="IT.LB.LBCAT" Comparator="EQ">
          <CheckValue>HEMATOLOGY</CheckValue>
        </RangeCheck>
        <RangeCheck SoftHard="Soft" def:ItemOID="IT.LB.LBMETHOD" Comparator="EQ">
          <CheckValue>Calculated</CheckValue>
        </RangeCheck>
      </def:WhereClauseDef>
      <def:WhereClauseDef OID="WC.LB.LBORRES.LYM">
        <RangeCheck SoftHard="Soft" def:ItemOID="IT.LB.LBTESTCD" Comparator="EQ">
          <CheckValue>LYM</CheckValue>
        </RangeCheck>
        <RangeCheck SoftHard="Soft" def:ItemOID="IT.LB.LBSPEC" Comparator="EQ">
          <CheckValue>WHOLE BLOOD</CheckValue>
        </RangeCheck>
        <RangeCheck SoftHard="Soft" def:ItemOID="IT.LB.LBCAT" Comparator="EQ">
          <CheckValue>HEMATOLOGY</CheckValue>
        </RangeCheck>
        <RangeCheck SoftHard="Soft" def:ItemOID="IT.LB.LBMETHOD" Comparator="EQ">
          <CheckValue>Calculated</CheckValue>
        </RangeCheck>
      </def:WhereClauseDef>
      <def:WhereClauseDef OID="WC.LB.LBORRES.LYMLE">
        <RangeCheck SoftHard="Soft" def:ItemOID="IT.LB.LBTESTCD" Comparator="EQ">
          <CheckValue>LYMLE</CheckValue>
        </RangeCheck>
        <RangeCheck SoftHard="Soft" def:ItemOID="IT.LB.LBSPEC" Comparator="EQ">
          <CheckValue>WHOLE BLOOD</CheckValue>
        </RangeCheck>
        <RangeCheck SoftHard="Soft" def:ItemOID="IT.LB.LBCAT" Comparator="EQ">
          <CheckValue>HEMATOLOGY</CheckValue>
        </RangeCheck>
        <RangeCheck SoftHard="Soft" def:ItemOID="IT.LB.LBMETHOD" Comparator="EQ">
          <CheckValue>Light Scattering Spectroscopy</CheckValue>
        </RangeCheck>
      </def:WhereClauseDef>
      <def:WhereClauseDef OID="WC.LB.LBORRES.MCH">
        <RangeCheck SoftHard="Soft" def:ItemOID="IT.LB.LBTESTCD" Comparator="EQ">
          <CheckValue>MCH</CheckValue>
        </RangeCheck>
        <RangeCheck SoftHard="Soft" def:ItemOID="IT.LB.LBSPEC" Comparator="EQ">
          <CheckValue>WHOLE BLOOD</CheckValue>
        </RangeCheck>
        <RangeCheck SoftHard="Soft" def:ItemOID="IT.LB.LBCAT" Comparator="EQ">
          <CheckValue>HEMATOLOGY</CheckValue>
        </RangeCheck>
        <RangeCheck SoftHard="Soft" def:ItemOID="IT.LB.LBMETHOD" Comparator="EQ">
          <CheckValue>Calculated</CheckValue>
        </RangeCheck>
      </def:WhereClauseDef>
      <def:WhereClauseDef OID="WC.LB.LBORRES.MCHC">
        <RangeCheck SoftHard="Soft" def:ItemOID="IT.LB.LBTESTCD" Comparator="EQ">
          <CheckValue>MCHC</CheckValue>
        </RangeCheck>
        <RangeCheck SoftHard="Soft" def:ItemOID="IT.LB.LBSPEC" Comparator="EQ">
          <CheckValue>WHOLE BLOOD</CheckValue>
        </RangeCheck>
        <RangeCheck SoftHard="Soft" def:ItemOID="IT.LB.LBCAT" Comparator="EQ">
          <CheckValue>HEMATOLOGY</CheckValue>
        </RangeCheck>
        <RangeCheck SoftHard="Soft" def:ItemOID="IT.LB.LBMETHOD" Comparator="EQ">
          <CheckValue>Calculated</CheckValue>
        </RangeCheck>
      </def:WhereClauseDef>
      <def:WhereClauseDef OID="WC.LB.LBORRES.MCV">
        <RangeCheck SoftHard="Soft" def:ItemOID="IT.LB.LBTESTCD" Comparator="EQ">
          <CheckValue>MCV</CheckValue>
        </RangeCheck>
        <RangeCheck SoftHard="Soft" def:ItemOID="IT.LB.LBSPEC" Comparator="EQ">
          <CheckValue>WHOLE BLOOD</CheckValue>
        </RangeCheck>
        <RangeCheck SoftHard="Soft" def:ItemOID="IT.LB.LBCAT" Comparator="EQ">
          <CheckValue>HEMATOLOGY</CheckValue>
        </RangeCheck>
        <RangeCheck SoftHard="Soft" def:ItemOID="IT.LB.LBMETHOD" Comparator="EQ">
          <CheckValue>Calculated</CheckValue>
        </RangeCheck>
      </def:WhereClauseDef>
      <def:WhereClauseDef OID="WC.LB.LBORRES.MONO">
        <RangeCheck SoftHard="Soft" def:ItemOID="IT.LB.LBTESTCD" Comparator="EQ">
          <CheckValue>MONO</CheckValue>
        </RangeCheck>
        <RangeCheck SoftHard="Soft" def:ItemOID="IT.LB.LBSPEC" Comparator="EQ">
          <CheckValue>WHOLE BLOOD</CheckValue>
        </RangeCheck>
        <RangeCheck SoftHard="Soft" def:ItemOID="IT.LB.LBCAT" Comparator="EQ">
          <CheckValue>HEMATOLOGY</CheckValue>
        </RangeCheck>
        <RangeCheck SoftHard="Soft" def:ItemOID="IT.LB.LBMETHOD" Comparator="EQ">
          <CheckValue>Calculated</CheckValue>
        </RangeCheck>
      </def:WhereClauseDef>
      <def:WhereClauseDef OID="WC.LB.LBORRES.MONOLE">
        <RangeCheck SoftHard="Soft" def:ItemOID="IT.LB.LBTESTCD" Comparator="EQ">
          <CheckValue>MONOLE</CheckValue>
        </RangeCheck>
        <RangeCheck SoftHard="Soft" def:ItemOID="IT.LB.LBSPEC" Comparator="EQ">
          <CheckValue>WHOLE BLOOD</CheckValue>
        </RangeCheck>
        <RangeCheck SoftHard="Soft" def:ItemOID="IT.LB.LBCAT" Comparator="EQ">
          <CheckValue>HEMATOLOGY</CheckValue>
        </RangeCheck>
        <RangeCheck SoftHard="Soft" def:ItemOID="IT.LB.LBMETHOD" Comparator="EQ">
          <CheckValue>Light Scattering Spectroscopy</CheckValue>
        </RangeCheck>
      </def:WhereClauseDef>
      <def:WhereClauseDef OID="WC.LB.LBORRES.NAK">
        <RangeCheck SoftHard="Soft" def:ItemOID="IT.LB.LBTESTCD" Comparator="EQ">
          <CheckValue>NAK</CheckValue>
        </RangeCheck>
        <RangeCheck SoftHard="Soft" def:ItemOID="IT.LB.LBSPEC" Comparator="EQ">
          <CheckValue>SERUM</CheckValue>
        </RangeCheck>
        <RangeCheck SoftHard="Soft" def:ItemOID="IT.LB.LBCAT" Comparator="EQ">
          <CheckValue>CLINICAL CHEMISTRY</CheckValue>
        </RangeCheck>
        <RangeCheck SoftHard="Soft" def:ItemOID="IT.LB.LBMETHOD" Comparator="EQ">
          <CheckValue> </CheckValue>
        </RangeCheck>
      </def:WhereClauseDef>
      <def:WhereClauseDef OID="WC.LB.LBORRES.NEUT">
        <RangeCheck SoftHard="Soft" def:ItemOID="IT.LB.LBTESTCD" Comparator="EQ">
          <CheckValue>NEUT</CheckValue>
        </RangeCheck>
        <RangeCheck SoftHard="Soft" def:ItemOID="IT.LB.LBSPEC" Comparator="EQ">
          <CheckValue>WHOLE BLOOD</CheckValue>
        </RangeCheck>
        <RangeCheck SoftHard="Soft" def:ItemOID="IT.LB.LBCAT" Comparator="EQ">
          <CheckValue>HEMATOLOGY</CheckValue>
        </RangeCheck>
        <RangeCheck SoftHard="Soft" def:ItemOID="IT.LB.LBMETHOD" Comparator="EQ">
          <CheckValue>Calculated</CheckValue>
        </RangeCheck>
      </def:WhereClauseDef>
      <def:WhereClauseDef OID="WC.LB.LBORRES.NEUTLE">
        <RangeCheck SoftHard="Soft" def:ItemOID="IT.LB.LBTESTCD" Comparator="EQ">
          <CheckValue>NEUTLE</CheckValue>
        </RangeCheck>
        <RangeCheck SoftHard="Soft" def:ItemOID="IT.LB.LBSPEC" Comparator="EQ">
          <CheckValue>WHOLE BLOOD</CheckValue>
        </RangeCheck>
        <RangeCheck SoftHard="Soft" def:ItemOID="IT.LB.LBCAT" Comparator="EQ">
          <CheckValue>HEMATOLOGY</CheckValue>
        </RangeCheck>
        <RangeCheck SoftHard="Soft" def:ItemOID="IT.LB.LBMETHOD" Comparator="EQ">
          <CheckValue>Light Scattering Spectroscopy</CheckValue>
        </RangeCheck>
      </def:WhereClauseDef>
      <def:WhereClauseDef OID="WC.LB.LBORRES.OCCBLD">
        <RangeCheck SoftHard="Soft" def:ItemOID="IT.LB.LBTESTCD" Comparator="EQ">
          <CheckValue>OCCBLD</CheckValue>
        </RangeCheck>
        <RangeCheck SoftHard="Soft" def:ItemOID="IT.LB.LBSPEC" Comparator="EQ">
          <CheckValue>URINE</CheckValue>
        </RangeCheck>
        <RangeCheck SoftHard="Soft" def:ItemOID="IT.LB.LBCAT" Comparator="EQ">
          <CheckValue>URINALYSIS</CheckValue>
        </RangeCheck>
        <RangeCheck SoftHard="Soft" def:ItemOID="IT.LB.LBMETHOD" Comparator="EQ">
          <CheckValue> </CheckValue>
        </RangeCheck>
      </def:WhereClauseDef>
      <def:WhereClauseDef OID="WC.LB.LBORRES.PH">
        <RangeCheck SoftHard="Soft" def:ItemOID="IT.LB.LBTESTCD" Comparator="EQ">
          <CheckValue>PH</CheckValue>
        </RangeCheck>
        <RangeCheck SoftHard="Soft" def:ItemOID="IT.LB.LBSPEC" Comparator="EQ">
          <CheckValue>URINE</CheckValue>
        </RangeCheck>
        <RangeCheck SoftHard="Soft" def:ItemOID="IT.LB.LBCAT" Comparator="EQ">
          <CheckValue>URINALYSIS</CheckValue>
        </RangeCheck>
        <RangeCheck SoftHard="Soft" def:ItemOID="IT.LB.LBMETHOD" Comparator="EQ">
          <CheckValue> </CheckValue>
        </RangeCheck>
      </def:WhereClauseDef>
      <def:WhereClauseDef OID="WC.LB.LBORRES.PHOS">
        <RangeCheck SoftHard="Soft" def:ItemOID="IT.LB.LBTESTCD" Comparator="EQ">
          <CheckValue>PHOS</CheckValue>
        </RangeCheck>
        <RangeCheck SoftHard="Soft" def:ItemOID="IT.LB.LBSPEC" Comparator="EQ">
          <CheckValue>SERUM</CheckValue>
        </RangeCheck>
        <RangeCheck SoftHard="Soft" def:ItemOID="IT.LB.LBCAT" Comparator="EQ">
          <CheckValue>CLINICAL CHEMISTRY</CheckValue>
        </RangeCheck>
        <RangeCheck SoftHard="Soft" def:ItemOID="IT.LB.LBMETHOD" Comparator="EQ">
          <CheckValue> </CheckValue>
        </RangeCheck>
      </def:WhereClauseDef>
      <def:WhereClauseDef OID="WC.LB.LBORRES.PHOSCRT">
        <RangeCheck SoftHard="Soft" def:ItemOID="IT.LB.LBTESTCD" Comparator="EQ">
          <CheckValue>PHOSCRT</CheckValue>
        </RangeCheck>
        <RangeCheck SoftHard="Soft" def:ItemOID="IT.LB.LBSPEC" Comparator="EQ">
          <CheckValue>SERUM</CheckValue>
        </RangeCheck>
        <RangeCheck SoftHard="Soft" def:ItemOID="IT.LB.LBCAT" Comparator="EQ">
          <CheckValue>CLINICAL CHEMISTRY</CheckValue>
        </RangeCheck>
        <RangeCheck SoftHard="Soft" def:ItemOID="IT.LB.LBMETHOD" Comparator="EQ">
          <CheckValue> </CheckValue>
        </RangeCheck>
      </def:WhereClauseDef>
      <def:WhereClauseDef OID="WC.LB.LBORRES.PLAT">
        <RangeCheck SoftHard="Soft" def:ItemOID="IT.LB.LBTESTCD" Comparator="EQ">
          <CheckValue>PLAT</CheckValue>
        </RangeCheck>
        <RangeCheck SoftHard="Soft" def:ItemOID="IT.LB.LBSPEC" Comparator="EQ">
          <CheckValue>WHOLE BLOOD</CheckValue>
        </RangeCheck>
        <RangeCheck SoftHard="Soft" def:ItemOID="IT.LB.LBCAT" Comparator="EQ">
          <CheckValue>HEMATOLOGY</CheckValue>
        </RangeCheck>
        <RangeCheck SoftHard="Soft" def:ItemOID="IT.LB.LBMETHOD" Comparator="EQ">
          <CheckValue>Light Scattering Spectroscopy</CheckValue>
        </RangeCheck>
      </def:WhereClauseDef>
      <def:WhereClauseDef OID="WC.LB.LBORRES.PROT1">
        <RangeCheck SoftHard="Soft" def:ItemOID="IT.LB.LBTESTCD" Comparator="EQ">
          <CheckValue>PROT</CheckValue>
        </RangeCheck>
        <RangeCheck SoftHard="Soft" def:ItemOID="IT.LB.LBSPEC" Comparator="EQ">
          <CheckValue>SERUM</CheckValue>
        </RangeCheck>
        <RangeCheck SoftHard="Soft" def:ItemOID="IT.LB.LBCAT" Comparator="EQ">
          <CheckValue>CLINICAL CHEMISTRY</CheckValue>
        </RangeCheck>
        <RangeCheck SoftHard="Soft" def:ItemOID="IT.LB.LBMETHOD" Comparator="EQ">
          <CheckValue> </CheckValue>
        </RangeCheck>
      </def:WhereClauseDef>
      <def:WhereClauseDef OID="WC.LB.LBORRES.PROT2">
        <RangeCheck SoftHard="Soft" def:ItemOID="IT.LB.LBTESTCD" Comparator="EQ">
          <CheckValue>PROT</CheckValue>
        </RangeCheck>
        <RangeCheck SoftHard="Soft" def:ItemOID="IT.LB.LBSPEC" Comparator="EQ">
          <CheckValue>URINE</CheckValue>
        </RangeCheck>
        <RangeCheck SoftHard="Soft" def:ItemOID="IT.LB.LBCAT" Comparator="EQ">
          <CheckValue>URINALYSIS</CheckValue>
        </RangeCheck>
        <RangeCheck SoftHard="Soft" def:ItemOID="IT.LB.LBMETHOD" Comparator="EQ">
          <CheckValue> </CheckValue>
        </RangeCheck>
      </def:WhereClauseDef>
      <def:WhereClauseDef OID="WC.LB.LBORRES.PT">
        <RangeCheck SoftHard="Soft" def:ItemOID="IT.LB.LBTESTCD" Comparator="EQ">
          <CheckValue>PT</CheckValue>
        </RangeCheck>
        <RangeCheck SoftHard="Soft" def:ItemOID="IT.LB.LBSPEC" Comparator="EQ">
          <CheckValue>PLASMA</CheckValue>
        </RangeCheck>
        <RangeCheck SoftHard="Soft" def:ItemOID="IT.LB.LBCAT" Comparator="EQ">
          <CheckValue>COAGULATION</CheckValue>
        </RangeCheck>
        <RangeCheck SoftHard="Soft" def:ItemOID="IT.LB.LBMETHOD" Comparator="EQ">
          <CheckValue> </CheckValue>
        </RangeCheck>
      </def:WhereClauseDef>
      <def:WhereClauseDef OID="WC.LB.LBORRES.RBC">
        <RangeCheck SoftHard="Soft" def:ItemOID="IT.LB.LBTESTCD" Comparator="EQ">
          <CheckValue>RBC</CheckValue>
        </RangeCheck>
        <RangeCheck SoftHard="Soft" def:ItemOID="IT.LB.LBSPEC" Comparator="EQ">
          <CheckValue>WHOLE BLOOD</CheckValue>
        </RangeCheck>
        <RangeCheck SoftHard="Soft" def:ItemOID="IT.LB.LBCAT" Comparator="EQ">
          <CheckValue>HEMATOLOGY</CheckValue>
        </RangeCheck>
        <RangeCheck SoftHard="Soft" def:ItemOID="IT.LB.LBMETHOD" Comparator="EQ">
          <CheckValue>Light Scattering Spectroscopy</CheckValue>
        </RangeCheck>
      </def:WhereClauseDef>
      <def:WhereClauseDef OID="WC.LB.LBORRES.RDW">
        <RangeCheck SoftHard="Soft" def:ItemOID="IT.LB.LBTESTCD" Comparator="EQ">
          <CheckValue>RDW</CheckValue>
        </RangeCheck>
        <RangeCheck SoftHard="Soft" def:ItemOID="IT.LB.LBSPEC" Comparator="EQ">
          <CheckValue>WHOLE BLOOD</CheckValue>
        </RangeCheck>
        <RangeCheck SoftHard="Soft" def:ItemOID="IT.LB.LBCAT" Comparator="EQ">
          <CheckValue>HEMATOLOGY</CheckValue>
        </RangeCheck>
        <RangeCheck SoftHard="Soft" def:ItemOID="IT.LB.LBMETHOD" Comparator="EQ">
          <CheckValue>Calculated</CheckValue>
        </RangeCheck>
      </def:WhereClauseDef>
      <def:WhereClauseDef OID="WC.LB.LBORRES.RETI">
        <RangeCheck SoftHard="Soft" def:ItemOID="IT.LB.LBTESTCD" Comparator="EQ">
          <CheckValue>RETI</CheckValue>
        </RangeCheck>
        <RangeCheck SoftHard="Soft" def:ItemOID="IT.LB.LBSPEC" Comparator="EQ">
          <CheckValue>WHOLE BLOOD</CheckValue>
        </RangeCheck>
        <RangeCheck SoftHard="Soft" def:ItemOID="IT.LB.LBCAT" Comparator="EQ">
          <CheckValue>HEMATOLOGY</CheckValue>
        </RangeCheck>
        <RangeCheck SoftHard="Soft" def:ItemOID="IT.LB.LBMETHOD" Comparator="EQ">
          <CheckValue>Calculated</CheckValue>
        </RangeCheck>
      </def:WhereClauseDef>
      <def:WhereClauseDef OID="WC.LB.LBORRES.RETIRBC">
        <RangeCheck SoftHard="Soft" def:ItemOID="IT.LB.LBTESTCD" Comparator="EQ">
          <CheckValue>RETIRBC</CheckValue>
        </RangeCheck>
        <RangeCheck SoftHard="Soft" def:ItemOID="IT.LB.LBSPEC" Comparator="EQ">
          <CheckValue>WHOLE BLOOD</CheckValue>
        </RangeCheck>
        <RangeCheck SoftHard="Soft" def:ItemOID="IT.LB.LBCAT" Comparator="EQ">
          <CheckValue>HEMATOLOGY</CheckValue>
        </RangeCheck>
        <RangeCheck SoftHard="Soft" def:ItemOID="IT.LB.LBMETHOD" Comparator="EQ">
          <CheckValue>Light Scattering Spectroscopy</CheckValue>
        </RangeCheck>
      </def:WhereClauseDef>
      <def:WhereClauseDef OID="WC.LB.LBORRES.SAQB">
        <RangeCheck SoftHard="Soft" def:ItemOID="IT.LB.LBTESTCD" Comparator="EQ">
          <CheckValue>SAQB</CheckValue>
        </RangeCheck>
        <RangeCheck SoftHard="Soft" def:ItemOID="IT.LB.LBSPEC" Comparator="EQ">
          <CheckValue>SERUM</CheckValue>
        </RangeCheck>
        <RangeCheck SoftHard="Soft" def:ItemOID="IT.LB.LBCAT" Comparator="EQ">
          <CheckValue>CLINICAL CHEMISTRY</CheckValue>
        </RangeCheck>
        <RangeCheck SoftHard="Soft" def:ItemOID="IT.LB.LBMETHOD" Comparator="EQ">
          <CheckValue> </CheckValue>
        </RangeCheck>
      </def:WhereClauseDef>
      <def:WhereClauseDef OID="WC.LB.LBORRES.SODIUM">
        <RangeCheck SoftHard="Soft" def:ItemOID="IT.LB.LBTESTCD" Comparator="EQ">
          <CheckValue>SODIUM</CheckValue>
        </RangeCheck>
        <RangeCheck SoftHard="Soft" def:ItemOID="IT.LB.LBSPEC" Comparator="EQ">
          <CheckValue>SERUM</CheckValue>
        </RangeCheck>
        <RangeCheck SoftHard="Soft" def:ItemOID="IT.LB.LBCAT" Comparator="EQ">
          <CheckValue>CLINICAL CHEMISTRY</CheckValue>
        </RangeCheck>
        <RangeCheck SoftHard="Soft" def:ItemOID="IT.LB.LBMETHOD" Comparator="EQ">
          <CheckValue> </CheckValue>
        </RangeCheck>
      </def:WhereClauseDef>
      <def:WhereClauseDef OID="WC.LB.LBORRES.SPGRAV">
        <RangeCheck SoftHard="Soft" def:ItemOID="IT.LB.LBTESTCD" Comparator="EQ">
          <CheckValue>SPGRAV</CheckValue>
        </RangeCheck>
        <RangeCheck SoftHard="Soft" def:ItemOID="IT.LB.LBSPEC" Comparator="EQ">
          <CheckValue>URINE</CheckValue>
        </RangeCheck>
        <RangeCheck SoftHard="Soft" def:ItemOID="IT.LB.LBCAT" Comparator="EQ">
          <CheckValue>URINALYSIS</CheckValue>
        </RangeCheck>
        <RangeCheck SoftHard="Soft" def:ItemOID="IT.LB.LBMETHOD" Comparator="EQ">
          <CheckValue> </CheckValue>
        </RangeCheck>
      </def:WhereClauseDef>
      <def:WhereClauseDef OID="WC.LB.LBORRES.TRIG">
        <RangeCheck SoftHard="Soft" def:ItemOID="IT.LB.LBTESTCD" Comparator="EQ">
          <CheckValue>TRIG</CheckValue>
        </RangeCheck>
        <RangeCheck SoftHard="Soft" def:ItemOID="IT.LB.LBSPEC" Comparator="EQ">
          <CheckValue>SERUM</CheckValue>
        </RangeCheck>
        <RangeCheck SoftHard="Soft" def:ItemOID="IT.LB.LBCAT" Comparator="EQ">
          <CheckValue>CLINICAL CHEMISTRY</CheckValue>
        </RangeCheck>
        <RangeCheck SoftHard="Soft" def:ItemOID="IT.LB.LBMETHOD" Comparator="EQ">
          <CheckValue> </CheckValue>
        </RangeCheck>
      </def:WhereClauseDef>
      <def:WhereClauseDef OID="WC.LB.LBORRES.UREAN">
        <RangeCheck SoftHard="Soft" def:ItemOID="IT.LB.LBTESTCD" Comparator="EQ">
          <CheckValue>UREAN</CheckValue>
        </RangeCheck>
        <RangeCheck SoftHard="Soft" def:ItemOID="IT.LB.LBSPEC" Comparator="EQ">
          <CheckValue>SERUM</CheckValue>
        </RangeCheck>
        <RangeCheck SoftHard="Soft" def:ItemOID="IT.LB.LBCAT" Comparator="EQ">
          <CheckValue>CLINICAL CHEMISTRY</CheckValue>
        </RangeCheck>
        <RangeCheck SoftHard="Soft" def:ItemOID="IT.LB.LBMETHOD" Comparator="EQ">
          <CheckValue> </CheckValue>
        </RangeCheck>
      </def:WhereClauseDef>
      <def:WhereClauseDef OID="WC.LB.LBORRES.UREANCRT">
        <RangeCheck SoftHard="Soft" def:ItemOID="IT.LB.LBTESTCD" Comparator="EQ">
          <CheckValue>UREANCRT</CheckValue>
        </RangeCheck>
        <RangeCheck SoftHard="Soft" def:ItemOID="IT.LB.LBSPEC" Comparator="EQ">
          <CheckValue>SERUM</CheckValue>
        </RangeCheck>
        <RangeCheck SoftHard="Soft" def:ItemOID="IT.LB.LBCAT" Comparator="EQ">
          <CheckValue>CLINICAL CHEMISTRY</CheckValue>
        </RangeCheck>
        <RangeCheck SoftHard="Soft" def:ItemOID="IT.LB.LBMETHOD" Comparator="EQ">
          <CheckValue> </CheckValue>
        </RangeCheck>
      </def:WhereClauseDef>
      <def:WhereClauseDef OID="WC.LB.LBORRES.WBC">
        <RangeCheck SoftHard="Soft" def:ItemOID="IT.LB.LBTESTCD" Comparator="EQ">
          <CheckValue>WBC</CheckValue>
        </RangeCheck>
        <RangeCheck SoftHard="Soft" def:ItemOID="IT.LB.LBSPEC" Comparator="EQ">
          <CheckValue>WHOLE BLOOD</CheckValue>
        </RangeCheck>
        <RangeCheck SoftHard="Soft" def:ItemOID="IT.LB.LBCAT" Comparator="EQ">
          <CheckValue>HEMATOLOGY</CheckValue>
        </RangeCheck>
        <RangeCheck SoftHard="Soft" def:ItemOID="IT.LB.LBMETHOD" Comparator="EQ">
          <CheckValue>Light Scattering Spectroscopy</CheckValue>
        </RangeCheck>
      </def:WhereClauseDef>
      <def:WhereClauseDef OID="WC.OM.OMORRES.LENGTH">
        <RangeCheck SoftHard="Soft" def:ItemOID="IT.OM.OMTESTCD" Comparator="EQ">
          <CheckValue>LENGTH</CheckValue>
        </RangeCheck>
      </def:WhereClauseDef>
      <def:WhereClauseDef OID="WC.OM.OMORRES.OWBW">
        <RangeCheck SoftHard="Soft" def:ItemOID="IT.OM.OMTESTCD" Comparator="EQ">
          <CheckValue>OWBW</CheckValue>
        </RangeCheck>
      </def:WhereClauseDef>
      <def:WhereClauseDef OID="WC.OM.OMORRES.WEIGHT">
        <RangeCheck SoftHard="Soft" def:ItemOID="IT.OM.OMTESTCD" Comparator="EQ">
          <CheckValue>WEIGHT</CheckValue>
        </RangeCheck>
      </def:WhereClauseDef>
      <def:WhereClauseDef OID="WC.SUPPCL.QVAL.CLRESMOD">
        <RangeCheck SoftHard="Soft" def:ItemOID="IT.SUPPCL.QNAM" Comparator="EQ">
          <CheckValue>CLRESMOD</CheckValue>
        </RangeCheck>
      </def:WhereClauseDef>
      <def:WhereClauseDef OID="WC.TS.TSVAL.AGE">
        <RangeCheck SoftHard="Soft" def:ItemOID="IT.TS.TSPARMCD" Comparator="EQ">
          <CheckValue>AGE</CheckValue>
        </RangeCheck>
      </def:WhereClauseDef>
      <def:WhereClauseDef OID="WC.TS.TSVAL.AGEU">
        <RangeCheck SoftHard="Soft" def:ItemOID="IT.TS.TSPARMCD" Comparator="EQ">
          <CheckValue>AGEU</CheckValue>
        </RangeCheck>
      </def:WhereClauseDef>
      <def:WhereClauseDef OID="WC.TS.TSVAL.BEDCHNG">
        <RangeCheck SoftHard="Soft" def:ItemOID="IT.TS.TSPARMCD" Comparator="EQ">
          <CheckValue>BEDCHNG</CheckValue>
        </RangeCheck>
      </def:WhereClauseDef>
      <def:WhereClauseDef OID="WC.TS.TSVAL.BEDDING">
        <RangeCheck SoftHard="Soft" def:ItemOID="IT.TS.TSPARMCD" Comparator="EQ">
          <CheckValue>BEDDING</CheckValue>
        </RangeCheck>
      </def:WhereClauseDef>
      <def:WhereClauseDef OID="WC.TS.TSVAL.DIET">
        <RangeCheck SoftHard="Soft" def:ItemOID="IT.TS.TSPARMCD" Comparator="EQ">
          <CheckValue>DIET</CheckValue>
        </RangeCheck>
      </def:WhereClauseDef>
      <def:WhereClauseDef OID="WC.TS.TSVAL.DOSDUR">
        <RangeCheck SoftHard="Soft" def:ItemOID="IT.TS.TSPARMCD" Comparator="EQ">
          <CheckValue>DOSDUR</CheckValue>
        </RangeCheck>
      </def:WhereClauseDef>
      <def:WhereClauseDef OID="WC.TS.TSVAL.DOSENDTC">
        <RangeCheck SoftHard="Soft" def:ItemOID="IT.TS.TSPARMCD" Comparator="EQ">
          <CheckValue>DOSENDTC</CheckValue>
        </RangeCheck>
      </def:WhereClauseDef>
      <def:WhereClauseDef OID="WC.TS.TSVAL.DOSSTDTC">
        <RangeCheck SoftHard="Soft" def:ItemOID="IT.TS.TSPARMCD" Comparator="EQ">
          <CheckValue>DOSSTDTC</CheckValue>
        </RangeCheck>
      </def:WhereClauseDef>
      <def:WhereClauseDef OID="WC.TS.TSVAL.ENVTEMP">
        <RangeCheck SoftHard="Soft" def:ItemOID="IT.TS.TSPARMCD" Comparator="EQ">
          <CheckValue>ENVTEMP</CheckValue>
        </RangeCheck>
      </def:WhereClauseDef>
      <def:WhereClauseDef OID="WC.TS.TSVAL.ENVTEMPU">
        <RangeCheck SoftHard="Soft" def:ItemOID="IT.TS.TSPARMCD" Comparator="EQ">
          <CheckValue>ENVTEMPU</CheckValue>
        </RangeCheck>
      </def:WhereClauseDef>
      <def:WhereClauseDef OID="WC.TS.TSVAL.EXPENDTC">
        <RangeCheck SoftHard="Soft" def:ItemOID="IT.TS.TSPARMCD" Comparator="EQ">
          <CheckValue>EXPENDTC</CheckValue>
        </RangeCheck>
      </def:WhereClauseDef>
      <def:WhereClauseDef OID="WC.TS.TSVAL.EXPSTDTC">
        <RangeCheck SoftHard="Soft" def:ItemOID="IT.TS.TSPARMCD" Comparator="EQ">
          <CheckValue>EXPSTDTC</CheckValue>
        </RangeCheck>
      </def:WhereClauseDef>
      <def:WhereClauseDef OID="WC.TS.TSVAL.FEEDREG">
        <RangeCheck SoftHard="Soft" def:ItemOID="IT.TS.TSPARMCD" Comparator="EQ">
          <CheckValue>FEEDREG</CheckValue>
        </RangeCheck>
      </def:WhereClauseDef>
      <def:WhereClauseDef OID="WC.TS.TSVAL.GLPFL">
        <RangeCheck SoftHard="Soft" def:ItemOID="IT.TS.TSPARMCD" Comparator="EQ">
          <CheckValue>GLPFL</CheckValue>
        </RangeCheck>
      </def:WhereClauseDef>
      <def:WhereClauseDef OID="WC.TS.TSVAL.GLPTYP">
        <RangeCheck SoftHard="Soft" def:ItemOID="IT.TS.TSPARMCD" Comparator="EQ">
          <CheckValue>GLPTYP</CheckValue>
        </RangeCheck>
      </def:WhereClauseDef>
      <def:WhereClauseDef OID="WC.TS.TSVAL.HOUSEGRP">
        <RangeCheck SoftHard="Soft" def:ItemOID="IT.TS.TSPARMCD" Comparator="EQ">
          <CheckValue>HOUSEGRP</CheckValue>
        </RangeCheck>
      </def:WhereClauseDef>
      <def:WhereClauseDef OID="WC.TS.TSVAL.HOUSETYP">
        <RangeCheck SoftHard="Soft" def:ItemOID="IT.TS.TSPARMCD" Comparator="EQ">
          <CheckValue>HOUSETYP</CheckValue>
        </RangeCheck>
      </def:WhereClauseDef>
      <def:WhereClauseDef OID="WC.TS.TSVAL.HUMIDT">
        <RangeCheck SoftHard="Soft" def:ItemOID="IT.TS.TSPARMCD" Comparator="EQ">
          <CheckValue>HUMIDT</CheckValue>
        </RangeCheck>
      </def:WhereClauseDef>
      <def:WhereClauseDef OID="WC.TS.TSVAL.HUMIDTU">
        <RangeCheck SoftHard="Soft" def:ItemOID="IT.TS.TSPARMCD" Comparator="EQ">
          <CheckValue>HUMIDTU</CheckValue>
        </RangeCheck>
      </def:WhereClauseDef>
      <def:WhereClauseDef OID="WC.TS.TSVAL.IDMETH">
        <RangeCheck SoftHard="Soft" def:ItemOID="IT.TS.TSPARMCD" Comparator="EQ">
          <CheckValue>IDMETH</CheckValue>
        </RangeCheck>
      </def:WhereClauseDef>
      <def:WhereClauseDef OID="WC.TS.TSVAL.LIGHT">
        <RangeCheck SoftHard="Soft" def:ItemOID="IT.TS.TSPARMCD" Comparator="EQ">
          <CheckValue>LIGHT</CheckValue>
        </RangeCheck>
      </def:WhereClauseDef>
      <def:WhereClauseDef OID="WC.TS.TSVAL.MTHTRM">
        <RangeCheck SoftHard="Soft" def:ItemOID="IT.TS.TSPARMCD" Comparator="EQ">
          <CheckValue>MTHTRM</CheckValue>
        </RangeCheck>
      </def:WhereClauseDef>
      <def:WhereClauseDef OID="WC.TS.TSVAL.PCLASS">
        <RangeCheck SoftHard="Soft" def:ItemOID="IT.TS.TSPARMCD" Comparator="EQ">
          <CheckValue>PCLASS</CheckValue>
        </RangeCheck>
      </def:WhereClauseDef>
      <def:WhereClauseDef OID="WC.TS.TSVAL.RECSAC">
        <RangeCheck SoftHard="Soft" def:ItemOID="IT.TS.TSPARMCD" Comparator="EQ">
          <CheckValue>RECSAC</CheckValue>
        </RangeCheck>
      </def:WhereClauseDef>
      <def:WhereClauseDef OID="WC.TS.TSVAL.ROUTE">
        <RangeCheck SoftHard="Soft" def:ItemOID="IT.TS.TSPARMCD" Comparator="EQ">
          <CheckValue>ROUTE</CheckValue>
        </RangeCheck>
      </def:WhereClauseDef>
      <def:WhereClauseDef OID="WC.TS.TSVAL.SDESIGN">
        <RangeCheck SoftHard="Soft" def:ItemOID="IT.TS.TSPARMCD" Comparator="EQ">
          <CheckValue>SDESIGN</CheckValue>
        </RangeCheck>
      </def:WhereClauseDef>
      <def:WhereClauseDef OID="WC.TS.TSVAL.SLENGTH">
        <RangeCheck SoftHard="Soft" def:ItemOID="IT.TS.TSPARMCD" Comparator="EQ">
          <CheckValue>SLENGTH</CheckValue>
        </RangeCheck>
      </def:WhereClauseDef>
      <def:WhereClauseDef OID="WC.TS.TSVAL.SNDCTVER">
        <RangeCheck SoftHard="Soft" def:ItemOID="IT.TS.TSPARMCD" Comparator="EQ">
          <CheckValue>SNDCTVER</CheckValue>
        </RangeCheck>
      </def:WhereClauseDef>
      <def:WhereClauseDef OID="WC.TS.TSVAL.SNDIGVER">
        <RangeCheck SoftHard="Soft" def:ItemOID="IT.TS.TSPARMCD" Comparator="EQ">
          <CheckValue>SNDIGVER</CheckValue>
        </RangeCheck>
      </def:WhereClauseDef>
      <def:WhereClauseDef OID="WC.TS.TSVAL.SPECIES">
        <RangeCheck SoftHard="Soft" def:ItemOID="IT.TS.TSPARMCD" Comparator="EQ">
          <CheckValue>SPECIES</CheckValue>
        </RangeCheck>
      </def:WhereClauseDef>
      <def:WhereClauseDef OID="WC.TS.TSVAL.SPLANSUB">
        <RangeCheck SoftHard="Soft" def:ItemOID="IT.TS.TSPARMCD" Comparator="EQ">
          <CheckValue>SPLANSUB</CheckValue>
        </RangeCheck>
      </def:WhereClauseDef>
      <def:WhereClauseDef OID="WC.TS.TSVAL.SPLRLOC">
        <RangeCheck SoftHard="Soft" def:ItemOID="IT.TS.TSPARMCD" Comparator="EQ">
          <CheckValue>SPLRLOC</CheckValue>
        </RangeCheck>
      </def:WhereClauseDef>
      <def:WhereClauseDef OID="WC.TS.TSVAL.SPLRNAM">
        <RangeCheck SoftHard="Soft" def:ItemOID="IT.TS.TSPARMCD" Comparator="EQ">
          <CheckValue>SPLRNAM</CheckValue>
        </RangeCheck>
      </def:WhereClauseDef>
      <def:WhereClauseDef OID="WC.TS.TSVAL.SPREFID">
        <RangeCheck SoftHard="Soft" def:ItemOID="IT.TS.TSPARMCD" Comparator="EQ">
          <CheckValue>SPREFID</CheckValue>
        </RangeCheck>
      </def:WhereClauseDef>
      <def:WhereClauseDef OID="WC.TS.TSVAL.SRANDOM">
        <RangeCheck SoftHard="Soft" def:ItemOID="IT.TS.TSPARMCD" Comparator="EQ">
          <CheckValue>SRANDOM</CheckValue>
        </RangeCheck>
      </def:WhereClauseDef>
      <def:WhereClauseDef OID="WC.TS.TSVAL.SSPONSOR">
        <RangeCheck SoftHard="Soft" def:ItemOID="IT.TS.TSPARMCD" Comparator="EQ">
          <CheckValue>SSPONSOR</CheckValue>
        </RangeCheck>
      </def:WhereClauseDef>
      <def:WhereClauseDef OID="WC.TS.TSVAL.SSTYP">
        <RangeCheck SoftHard="Soft" def:ItemOID="IT.TS.TSPARMCD" Comparator="EQ">
          <CheckValue>SSTYP</CheckValue>
        </RangeCheck>
      </def:WhereClauseDef>
      <def:WhereClauseDef OID="WC.TS.TSVAL.STCAT">
        <RangeCheck SoftHard="Soft" def:ItemOID="IT.TS.TSPARMCD" Comparator="EQ">
          <CheckValue>STCAT</CheckValue>
        </RangeCheck>
      </def:WhereClauseDef>
      <def:WhereClauseDef OID="WC.TS.TSVAL.STDIR">
        <RangeCheck SoftHard="Soft" def:ItemOID="IT.TS.TSPARMCD" Comparator="EQ">
          <CheckValue>STDIR</CheckValue>
        </RangeCheck>
      </def:WhereClauseDef>
      <def:WhereClauseDef OID="WC.TS.TSVAL.STENDTC">
        <RangeCheck SoftHard="Soft" def:ItemOID="IT.TS.TSPARMCD" Comparator="EQ">
          <CheckValue>STENDTC</CheckValue>
        </RangeCheck>
      </def:WhereClauseDef>
      <def:WhereClauseDef OID="WC.TS.TSVAL.STITLE">
        <RangeCheck SoftHard="Soft" def:ItemOID="IT.TS.TSPARMCD" Comparator="EQ">
          <CheckValue>STITLE</CheckValue>
        </RangeCheck>
      </def:WhereClauseDef>
      <def:WhereClauseDef OID="WC.TS.TSVAL.STMON">
        <RangeCheck SoftHard="Soft" def:ItemOID="IT.TS.TSPARMCD" Comparator="EQ">
          <CheckValue>STMON</CheckValue>
        </RangeCheck>
      </def:WhereClauseDef>
      <def:WhereClauseDef OID="WC.TS.TSVAL.STRAIN">
        <RangeCheck SoftHard="Soft" def:ItemOID="IT.TS.TSPARMCD" Comparator="EQ">
          <CheckValue>STRAIN</CheckValue>
        </RangeCheck>
      </def:WhereClauseDef>
      <def:WhereClauseDef OID="WC.TS.TSVAL.STSTDTC">
        <RangeCheck SoftHard="Soft" def:ItemOID="IT.TS.TSPARMCD" Comparator="EQ">
          <CheckValue>STSTDTC</CheckValue>
        </RangeCheck>
      </def:WhereClauseDef>
      <def:WhereClauseDef OID="WC.TS.TSVAL.TFCNTRY">
        <RangeCheck SoftHard="Soft" def:ItemOID="IT.TS.TSPARMCD" Comparator="EQ">
          <CheckValue>TFCNTRY</CheckValue>
        </RangeCheck>
      </def:WhereClauseDef>
      <def:WhereClauseDef OID="WC.TS.TSVAL.TRMSAC">
        <RangeCheck SoftHard="Soft" def:ItemOID="IT.TS.TSPARMCD" Comparator="EQ">
          <CheckValue>TRMSAC</CheckValue>
        </RangeCheck>
      </def:WhereClauseDef>
      <def:WhereClauseDef OID="WC.TS.TSVAL.TRT">
        <RangeCheck SoftHard="Soft" def:ItemOID="IT.TS.TSPARMCD" Comparator="EQ">
          <CheckValue>TRT</CheckValue>
        </RangeCheck>
      </def:WhereClauseDef>
      <def:WhereClauseDef OID="WC.TS.TSVAL.TRTCAS">
        <RangeCheck SoftHard="Soft" def:ItemOID="IT.TS.TSPARMCD" Comparator="EQ">
          <CheckValue>TRTCAS</CheckValue>
        </RangeCheck>
      </def:WhereClauseDef>
      <def:WhereClauseDef OID="WC.TS.TSVAL.TRTUNII">
        <RangeCheck SoftHard="Soft" def:ItemOID="IT.TS.TSPARMCD" Comparator="EQ">
          <CheckValue>TRTUNII</CheckValue>
        </RangeCheck>
      </def:WhereClauseDef>
      <def:WhereClauseDef OID="WC.TS.TSVAL.TRTV">
        <RangeCheck SoftHard="Soft" def:ItemOID="IT.TS.TSPARMCD" Comparator="EQ">
          <CheckValue>TRTV</CheckValue>
        </RangeCheck>
      </def:WhereClauseDef>
      <def:WhereClauseDef OID="WC.TS.TSVAL.TSTFLOC">
        <RangeCheck SoftHard="Soft" def:ItemOID="IT.TS.TSPARMCD" Comparator="EQ">
          <CheckValue>TSTFLOC</CheckValue>
        </RangeCheck>
      </def:WhereClauseDef>
      <def:WhereClauseDef OID="WC.TS.TSVAL.TSTFNAM">
        <RangeCheck SoftHard="Soft" def:ItemOID="IT.TS.TSPARMCD" Comparator="EQ">
          <CheckValue>TSTFNAM</CheckValue>
        </RangeCheck>
      </def:WhereClauseDef>
      <def:WhereClauseDef OID="WC.TS.TSVAL.WATER">
        <RangeCheck SoftHard="Soft" def:ItemOID="IT.TS.TSPARMCD" Comparator="EQ">
          <CheckValue>WATER</CheckValue>
        </RangeCheck>
      </def:WhereClauseDef>
      <def:WhereClauseDef OID="WC.TS.TSVAL.WTRDLVRY">
        <RangeCheck SoftHard="Soft" def:ItemOID="IT.TS.TSPARMCD" Comparator="EQ">
          <CheckValue>WTRDLVRY</CheckValue>
        </RangeCheck>
      </def:WhereClauseDef>
      <def:WhereClauseDef OID="WC.TX.TXVAL.ARMCD">
        <RangeCheck SoftHard="Soft" def:ItemOID="IT.TX.TXPARMCD" Comparator="EQ">
          <CheckValue>ARMCD</CheckValue>
        </RangeCheck>
      </def:WhereClauseDef>
      <def:WhereClauseDef OID="WC.TX.TXVAL.GRPLBL">
        <RangeCheck SoftHard="Soft" def:ItemOID="IT.TX.TXPARMCD" Comparator="EQ">
          <CheckValue>GRPLBL</CheckValue>
        </RangeCheck>
      </def:WhereClauseDef>
      <def:WhereClauseDef OID="WC.TX.TXVAL.PLANFSUB">
        <RangeCheck SoftHard="Soft" def:ItemOID="IT.TX.TXPARMCD" Comparator="EQ">
          <CheckValue>PLANFSUB</CheckValue>
        </RangeCheck>
      </def:WhereClauseDef>
      <def:WhereClauseDef OID="WC.TX.TXVAL.PLANMSUB">
        <RangeCheck SoftHard="Soft" def:ItemOID="IT.TX.TXPARMCD" Comparator="EQ">
          <CheckValue>PLANMSUB</CheckValue>
        </RangeCheck>
      </def:WhereClauseDef>
      <def:WhereClauseDef OID="WC.TX.TXVAL.SETLBL">
        <RangeCheck SoftHard="Soft" def:ItemOID="IT.TX.TXPARMCD" Comparator="EQ">
          <CheckValue>SETLBL</CheckValue>
        </RangeCheck>
      </def:WhereClauseDef>
      <def:WhereClauseDef OID="WC.TX.TXVAL.SEXPOP">
        <RangeCheck SoftHard="Soft" def:ItemOID="IT.TX.TXPARMCD" Comparator="EQ">
          <CheckValue>SEXPOP</CheckValue>
        </RangeCheck>
      </def:WhereClauseDef>
      <def:WhereClauseDef OID="WC.TX.TXVAL.SPGRPCD">
        <RangeCheck SoftHard="Soft" def:ItemOID="IT.TX.TXPARMCD" Comparator="EQ">
          <CheckValue>SPGRPCD</CheckValue>
        </RangeCheck>
      </def:WhereClauseDef>
      <def:WhereClauseDef OID="WC.TX.TXVAL.SPLANSUB">
        <RangeCheck SoftHard="Soft" def:ItemOID="IT.TX.TXPARMCD" Comparator="EQ">
          <CheckValue>SPLANSUB</CheckValue>
        </RangeCheck>
      </def:WhereClauseDef>
      <def:WhereClauseDef OID="WC.TX.TXVAL.TCNTRL">
        <RangeCheck SoftHard="Soft" def:ItemOID="IT.TX.TXPARMCD" Comparator="EQ">
          <CheckValue>TCNTRL</CheckValue>
        </RangeCheck>
      </def:WhereClauseDef>
      <def:WhereClauseDef OID="WC.TX.TXVAL.TKDESC">
        <RangeCheck SoftHard="Soft" def:ItemOID="IT.TX.TXPARMCD" Comparator="EQ">
          <CheckValue>TKDESC</CheckValue>
        </RangeCheck>
      </def:WhereClauseDef>
      <def:WhereClauseDef OID="WC.TX.TXVAL.TRTDOS">
        <RangeCheck SoftHard="Soft" def:ItemOID="IT.TX.TXPARMCD" Comparator="EQ">
          <CheckValue>TRTDOS</CheckValue>
        </RangeCheck>
      </def:WhereClauseDef>
      <def:WhereClauseDef OID="WC.TX.TXVAL.TRTDOSU">
        <RangeCheck SoftHard="Soft" def:ItemOID="IT.TX.TXPARMCD" Comparator="EQ">
          <CheckValue>TRTDOSU</CheckValue>
        </RangeCheck>
      </def:WhereClauseDef>
      <ItemGroupDef OID="IG.TA" Domain="TA" Name="TA" Repeating="No" IsReferenceData="Yes" SASDatasetName="TA"
        Purpose="Tabulation" def:Structure="One record per planned Element per Arm" def:StandardOID="STD.1"
        def:ArchiveLocationID="LF.TA">
        <Description>
          <TranslatedText xml:lang="en">Trial Arms</TranslatedText>
        </Description>
        <ItemRef ItemOID="IT.TA.STUDYID" OrderNumber="1" Mandatory="Yes" KeySequence="1"/>
        <ItemRef ItemOID="IT.TA.DOMAIN" OrderNumber="2" Mandatory="Yes"/>
        <ItemRef ItemOID="IT.TA.ARMCD" OrderNumber="3" Mandatory="Yes" KeySequence="2"/>
        <ItemRef ItemOID="IT.TA.ARM" OrderNumber="4" Mandatory="Yes"/>
        <ItemRef ItemOID="IT.TA.TAETORD" OrderNumber="5" Mandatory="Yes" KeySequence="3"/>
        <ItemRef ItemOID="IT.TA.ETCD" OrderNumber="6" Mandatory="Yes"/>
        <ItemRef ItemOID="IT.TA.ELEMENT" OrderNumber="7" Mandatory="No"/>
        <ItemRef ItemOID="IT.TA.EPOCH" OrderNumber="8" Mandatory="No"/>
        <def:Class Name="TRIAL DESIGN"/>
        <def:leaf ID="LF.TA" xlink:href="ta.xpt">
          <def:title>ta.xpt</def:title>
        </def:leaf>
      </ItemGroupDef>
      <ItemGroupDef OID="IG.TE" Domain="TE" Name="TE" Repeating="No" IsReferenceData="Yes" SASDatasetName="TE"
        Purpose="Tabulation" def:Structure="One record per planned Element" def:StandardOID="STD.1"
        def:ArchiveLocationID="LF.TE">
        <Description>
          <TranslatedText xml:lang="en">Trial Elements</TranslatedText>
        </Description>
        <ItemRef ItemOID="IT.TE.STUDYID" OrderNumber="1" Mandatory="Yes" KeySequence="1"/>
        <ItemRef ItemOID="IT.TE.DOMAIN" OrderNumber="2" Mandatory="Yes"/>
        <ItemRef ItemOID="IT.TE.ETCD" OrderNumber="3" Mandatory="Yes" KeySequence="2"/>
        <ItemRef ItemOID="IT.TE.ELEMENT" OrderNumber="4" Mandatory="Yes"/>
        <ItemRef ItemOID="IT.TE.TESTRL" OrderNumber="5" Mandatory="Yes"/>
        <ItemRef ItemOID="IT.TE.TEENRL" OrderNumber="6" Mandatory="No"/>
        <def:Class Name="TRIAL DESIGN"/>
        <def:leaf ID="LF.TE" xlink:href="te.xpt">
          <def:title>te.xpt</def:title>
        </def:leaf>
      </ItemGroupDef>
      <ItemGroupDef OID="IG.TP" Domain="TP" Name="TP" Repeating="No" IsReferenceData="Yes" SASDatasetName="TP"
        Purpose="Tabulation" def:Structure="One record per planned Stage per Path" def:StandardOID="STD.1"
        def:ArchiveLocationID="LF.TP">
        <Description>
          <TranslatedText xml:lang="en">Trial Repro Paths</TranslatedText>
        </Description>
        <ItemRef ItemOID="IT.TP.STUDYID" OrderNumber="1" Mandatory="Yes" KeySequence="1"/>
        <ItemRef ItemOID="IT.TP.DOMAIN" OrderNumber="2" Mandatory="Yes"/>
        <ItemRef ItemOID="IT.TP.RPATHCD" OrderNumber="3" Mandatory="Yes" KeySequence="2"/>
        <ItemRef ItemOID="IT.TP.RPATH" OrderNumber="4" Mandatory="Yes"/>
        <ItemRef ItemOID="IT.TP.TPSTGORD" OrderNumber="5" Mandatory="Yes"/>
        <ItemRef ItemOID="IT.TP.RSTGCD" OrderNumber="6" Mandatory="Yes" KeySequence="3"/>
        <ItemRef ItemOID="IT.TP.RSTAGE" OrderNumber="7" Mandatory="No"/>
        <ItemRef ItemOID="IT.TP.RPHASE" OrderNumber="8" Mandatory="Yes"/>
        <ItemRef ItemOID="IT.TP.RPRFDY" OrderNumber="9" Mandatory="Yes"/>
        <def:Class Name="TRIAL DESIGN"/>
        <def:leaf ID="LF.TP" xlink:href="tp.xpt">
          <def:title>tp.xpt</def:title>
        </def:leaf>
      </ItemGroupDef>
      <ItemGroupDef OID="IG.TS" Domain="TS" Name="TS" Repeating="No" IsReferenceData="Yes" SASDatasetName="TS"
        Purpose="Tabulation" def:Structure="One record per Trial Summary parameter value" def:StandardOID="STD.1"
        def:ArchiveLocationID="LF.TS">
        <Description>
          <TranslatedText xml:lang="en">Trial Summary</TranslatedText>
        </Description>
        <ItemRef ItemOID="IT.TS.STUDYID" OrderNumber="1" Mandatory="Yes" KeySequence="1"/>
        <ItemRef ItemOID="IT.TS.DOMAIN" OrderNumber="2" Mandatory="Yes"/>
        <ItemRef ItemOID="IT.TS.TSSEQ" OrderNumber="3" Mandatory="Yes" KeySequence="3"/>
        <ItemRef ItemOID="IT.TS.TSGRPID" OrderNumber="4" Mandatory="No" def:HasNoData="Yes"/>
        <ItemRef ItemOID="IT.TS.TSPARMCD" OrderNumber="5" Mandatory="Yes" KeySequence="2"/>
        <ItemRef ItemOID="IT.TS.TSPARM" OrderNumber="6" Mandatory="Yes"/>
        <ItemRef ItemOID="IT.TS.TSVAL" OrderNumber="7" Mandatory="Yes"/>
        <ItemRef ItemOID="IT.TS.TSVAL1" OrderNumber="8" Mandatory="Yes"/>
        <def:Class Name="TRIAL DESIGN"/>
        <def:leaf ID="LF.TS" xlink:href="ts.xpt">
          <def:title>ts.xpt</def:title>
        </def:leaf>
      </ItemGroupDef>
      <ItemGroupDef OID="IG.TT" Domain="TT" Name="TT" Repeating="No" IsReferenceData="Yes" SASDatasetName="TT"
        Purpose="Tabulation" def:Structure="One record per planned Stage" def:StandardOID="STD.1"
        def:ArchiveLocationID="LF.TT">
        <Description>
          <TranslatedText xml:lang="en">Trial Repro Stages</TranslatedText>
        </Description>
        <ItemRef ItemOID="IT.TT.STUDYID" OrderNumber="1" Mandatory="Yes" KeySequence="1"/>
        <ItemRef ItemOID="IT.TT.DOMAIN" OrderNumber="2" Mandatory="Yes"/>
        <ItemRef ItemOID="IT.TT.RSTGCD" OrderNumber="3" Mandatory="Yes" KeySequence="2"/>
        <ItemRef ItemOID="IT.TT.RSTAGE" OrderNumber="4" Mandatory="Yes"/>
        <ItemRef ItemOID="IT.TT.TTSTRL" OrderNumber="5" Mandatory="Yes"/>
        <ItemRef ItemOID="IT.TT.TTENRL" OrderNumber="6" Mandatory="No"/>
        <def:Class Name="TRIAL DESIGN"/>
        <def:leaf ID="LF.TT" xlink:href="tt.xpt">
          <def:title>tt.xpt</def:title>
        </def:leaf>
      </ItemGroupDef>
      <ItemGroupDef OID="IG.TX" Domain="TX" Name="TX" Repeating="No" IsReferenceData="Yes" SASDatasetName="TX"
        Purpose="Tabulation" def:Structure="One record per Trial Set parameter per Trial Set" def:StandardOID="STD.1"
        def:ArchiveLocationID="LF.TX">
        <Description>
          <TranslatedText xml:lang="en">Trial Sets</TranslatedText>
        </Description>
        <ItemRef ItemOID="IT.TX.STUDYID" OrderNumber="1" Mandatory="Yes" KeySequence="1"/>
        <ItemRef ItemOID="IT.TX.DOMAIN" OrderNumber="2" Mandatory="Yes"/>
        <ItemRef ItemOID="IT.TX.SETCD" OrderNumber="3" Mandatory="Yes" KeySequence="2"/>
        <ItemRef ItemOID="IT.TX.SET" OrderNumber="4" Mandatory="Yes"/>
        <ItemRef ItemOID="IT.TX.TXSEQ" OrderNumber="5" Mandatory="Yes" KeySequence="4"/>
        <ItemRef ItemOID="IT.TX.TXPARMCD" OrderNumber="6" Mandatory="Yes" KeySequence="3"/>
        <ItemRef ItemOID="IT.TX.TXPARM" OrderNumber="7" Mandatory="Yes"/>
        <ItemRef ItemOID="IT.TX.TXVAL" OrderNumber="8" Mandatory="Yes"/>
        <def:Class Name="TRIAL DESIGN"/>
        <def:leaf ID="LF.TX" xlink:href="tx.xpt">
          <def:title>tx.xpt</def:title>
        </def:leaf>
      </ItemGroupDef>
      <ItemGroupDef OID="IG.CO" Domain="CO" Name="CO" Repeating="No" IsReferenceData="No" SASDatasetName="CO"
        Purpose="Tabulation" def:Structure="One record per comment" def:StandardOID="STD.1"
        def:ArchiveLocationID="LF.CO">
        <Description>
          <TranslatedText xml:lang="en">Comments</TranslatedText>
        </Description>
        <ItemRef ItemOID="IT.CO.STUDYID" OrderNumber="1" Mandatory="Yes" KeySequence="1"/>
        <ItemRef ItemOID="IT.CO.DOMAIN" OrderNumber="2" Mandatory="Yes"/>
        <ItemRef ItemOID="IT.CO.RDOMAIN" OrderNumber="3" Mandatory="No"/>
        <ItemRef ItemOID="IT.CO.USUBJID" OrderNumber="4" Mandatory="No" KeySequence="2" MethodOID="MT.COMPUSUBJID"/>
        <ItemRef ItemOID="IT.CO.COSEQ" OrderNumber="5" Mandatory="Yes" KeySequence="3" MethodOID="MT.COMPSEQ"/>
        <ItemRef ItemOID="IT.CO.IDVAR" OrderNumber="6" Mandatory="No"/>
        <ItemRef ItemOID="IT.CO.IDVARVAL" OrderNumber="7" Mandatory="No"/>
        <ItemRef ItemOID="IT.CO.COVAL" OrderNumber="8" Mandatory="Yes"/>
        <ItemRef ItemOID="IT.CO.RPHASE" OrderNumber="9" Mandatory="No"/>
        <ItemRef ItemOID="IT.CO.CODTC" OrderNumber="10" Mandatory="No"/>
        <def:Class Name="SPECIAL PURPOSE"/>
        <def:leaf ID="LF.CO" xlink:href="co.xpt">
          <def:title>co.xpt</def:title>
        </def:leaf>
      </ItemGroupDef>
      <ItemGroupDef OID="IG.DM" Domain="DM" Name="DM" Repeating="No" IsReferenceData="No" SASDatasetName="DM"
        Purpose="Tabulation" def:Structure="One record per subject" def:StandardOID="STD.1"
        def:ArchiveLocationID="LF.DM">
        <Description>
          <TranslatedText xml:lang="en">Demographics</TranslatedText>
        </Description>
        <ItemRef ItemOID="IT.DM.STUDYID" OrderNumber="1" Mandatory="Yes" KeySequence="1"/>
        <ItemRef ItemOID="IT.DM.DOMAIN" OrderNumber="2" Mandatory="Yes"/>
        <ItemRef ItemOID="IT.DM.USUBJID" OrderNumber="3" Mandatory="Yes" KeySequence="2" MethodOID="MT.COMPUSUBJID"/>
        <ItemRef ItemOID="IT.DM.SUBJID" OrderNumber="4" Mandatory="Yes"/>
        <ItemRef ItemOID="IT.DM.RFSTDTC" OrderNumber="5" Mandatory="Yes"/>
        <ItemRef ItemOID="IT.DM.RFENDTC" OrderNumber="6" Mandatory="No"/>
        <ItemRef ItemOID="IT.DM.RFXSTDTC" OrderNumber="7" Mandatory="No"/>
        <ItemRef ItemOID="IT.DM.RFXENDTC" OrderNumber="8" Mandatory="No"/>
        <ItemRef ItemOID="IT.DM.BRTHDTC" OrderNumber="9" Mandatory="No"/>
        <ItemRef ItemOID="IT.DM.AGE" OrderNumber="10" Mandatory="No" MethodOID="MT.COMPAGE"/>
        <ItemRef ItemOID="IT.DM.AGEU" OrderNumber="11" Mandatory="No"/>
        <ItemRef ItemOID="IT.DM.SEX" OrderNumber="12" Mandatory="Yes"/>
        <ItemRef ItemOID="IT.DM.ARMCD" OrderNumber="13" Mandatory="No"/>
        <ItemRef ItemOID="IT.DM.ARM" OrderNumber="14" Mandatory="No"/>
        <ItemRef ItemOID="IT.DM.SETCD" OrderNumber="15" Mandatory="Yes"/>
        <ItemRef ItemOID="IT.DM.RPATHCD" OrderNumber="16" Mandatory="No"/>
        <def:Class Name="SPECIAL PURPOSE"/>
        <def:leaf ID="LF.DM" xlink:href="dm.xpt">
          <def:title>dm.xpt</def:title>
        </def:leaf>
      </ItemGroupDef>
      <ItemGroupDef OID="IG.SE" Domain="SE" Name="SE" Repeating="Yes" IsReferenceData="No" SASDatasetName="SE"
        Purpose="Tabulation" def:Structure="One record per element experienced per subject" def:StandardOID="STD.1"
        def:ArchiveLocationID="LF.SE">
        <Description>
          <TranslatedText xml:lang="en">Subject Elements</TranslatedText>
        </Description>
        <ItemRef ItemOID="IT.SE.STUDYID" OrderNumber="1" Mandatory="Yes" KeySequence="1"/>
        <ItemRef ItemOID="IT.SE.DOMAIN" OrderNumber="2" Mandatory="Yes"/>
        <ItemRef ItemOID="IT.SE.USUBJID" OrderNumber="3" Mandatory="Yes" KeySequence="2" MethodOID="MT.COMPUSUBJID"/>
        <ItemRef ItemOID="IT.SE.SESEQ" OrderNumber="4" Mandatory="Yes" MethodOID="MT.COMPSEQ"/>
        <ItemRef ItemOID="IT.SE.ETCD" OrderNumber="5" Mandatory="Yes" KeySequence="3"/>
        <ItemRef ItemOID="IT.SE.ELEMENT" OrderNumber="6" Mandatory="No"/>
        <ItemRef ItemOID="IT.SE.SESTDTC" OrderNumber="7" Mandatory="Yes" KeySequence="4"/>
        <ItemRef ItemOID="IT.SE.SEENDTC" OrderNumber="8" Mandatory="No"/>
        <def:Class Name="SPECIAL PURPOSE"/>
        <def:leaf ID="LF.SE" xlink:href="se.xpt">
          <def:title>se.xpt</def:title>
        </def:leaf>
      </ItemGroupDef>
      <ItemGroupDef OID="IG.SJ" Domain="SJ" Name="SJ" Repeating="No" IsReferenceData="No" SASDatasetName="SJ"
        Purpose="Tabulation" def:Structure="One record per actual Repro Stage per subject" def:StandardOID="STD.1"
        def:ArchiveLocationID="LF.SJ">
        <Description>
          <TranslatedText xml:lang="en">Subject Repro Stages</TranslatedText>
        </Description>
        <ItemRef ItemOID="IT.SJ.STUDYID" OrderNumber="1" Mandatory="Yes" KeySequence="1"/>
        <ItemRef ItemOID="IT.SJ.DOMAIN" OrderNumber="2" Mandatory="Yes"/>
        <ItemRef ItemOID="IT.SJ.USUBJID" OrderNumber="3" Mandatory="Yes" KeySequence="2" MethodOID="MT.COMPUSUBJID"/>
        <ItemRef ItemOID="IT.SJ.SJSEQ" OrderNumber="4" Mandatory="Yes" MethodOID="MT.COMPSEQ"/>
        <ItemRef ItemOID="IT.SJ.RSTGCD" OrderNumber="5" Mandatory="Yes" KeySequence="3"/>
        <ItemRef ItemOID="IT.SJ.RSTAGE" OrderNumber="6" Mandatory="No"/>
        <ItemRef ItemOID="IT.SJ.SJSTDTC" OrderNumber="7" Mandatory="Yes" KeySequence="4"/>
        <ItemRef ItemOID="IT.SJ.SJENDTC" OrderNumber="8" Mandatory="No"/>
        <ItemRef ItemOID="IT.SJ.RPHASE" OrderNumber="9" Mandatory="Yes"/>
        <def:Class Name="SPECIAL PURPOSE"/>
        <def:leaf ID="LF.SJ" xlink:href="sj.xpt">
          <def:title>sj.xpt</def:title>
        </def:leaf>
      </ItemGroupDef>
      <ItemGroupDef OID="IG.EX" Domain="EX" Name="EX" Repeating="Yes" IsReferenceData="No" SASDatasetName="EX"
        Purpose="Tabulation" def:Structure="One record per constant dosing interval per treatment per subject or pool"
        def:StandardOID="STD.1" def:ArchiveLocationID="LF.EX">
        <Description>
          <TranslatedText xml:lang="en">Exposure</TranslatedText>
        </Description>
        <ItemRef ItemOID="IT.EX.STUDYID" OrderNumber="1" Mandatory="Yes" KeySequence="1"/>
        <ItemRef ItemOID="IT.EX.DOMAIN" OrderNumber="2" Mandatory="Yes"/>
        <ItemRef ItemOID="IT.EX.USUBJID" OrderNumber="3" Mandatory="No" KeySequence="2" MethodOID="MT.COMPUSUBJID"/>
        <ItemRef ItemOID="IT.EX.EXSEQ" OrderNumber="4" Mandatory="Yes" MethodOID="MT.COMPSEQ"/>
        <ItemRef ItemOID="IT.EX.EXTRT" OrderNumber="5" Mandatory="Yes" KeySequence="3"/>
        <ItemRef ItemOID="IT.EX.EXDOSE" OrderNumber="6" Mandatory="No" MethodOID="MT.COMPDOSE"/>
        <ItemRef ItemOID="IT.EX.EXDOSU" OrderNumber="7" Mandatory="No"/>
        <ItemRef ItemOID="IT.EX.EXDOSFRM" OrderNumber="8" Mandatory="No"/>
        <ItemRef ItemOID="IT.EX.EXDOSFRQ" OrderNumber="9" Mandatory="Yes"/>
        <ItemRef ItemOID="IT.EX.EXROUTE" OrderNumber="10" Mandatory="Yes" KeySequence="4"/>
        <ItemRef ItemOID="IT.EX.EXLOT" OrderNumber="11" Mandatory="No"/>
        <ItemRef ItemOID="IT.EX.EXTRTV" OrderNumber="12" Mandatory="No" KeySequence="5"/>
        <ItemRef ItemOID="IT.EX.EXVAMT" OrderNumber="13" Mandatory="No"/>
        <ItemRef ItemOID="IT.EX.EXVAMTU" OrderNumber="14" Mandatory="No"/>
        <ItemRef ItemOID="IT.EX.RPHASE" OrderNumber="15" Mandatory="No"/>
        <ItemRef ItemOID="IT.EX.RPPLSTDY" OrderNumber="16" Mandatory="No" MethodOID="MT.COMPRPPLSTDY"/>
        <ItemRef ItemOID="IT.EX.EXSTDTC" OrderNumber="17" Mandatory="No" KeySequence="6"/>
        <ItemRef ItemOID="IT.EX.EXRPSTDY" OrderNumber="18" Mandatory="No" MethodOID="MT.COMPRPSTDY"/>
        <def:Class Name="INTERVENTIONS"/>
        <def:leaf ID="LF.EX" xlink:href="ex.xpt">
          <def:title>ex.xpt</def:title>
        </def:leaf>
      </ItemGroupDef>
      <ItemGroupDef OID="IG.DS" Domain="DS" Name="DS" Repeating="No" IsReferenceData="No" SASDatasetName="DS"
        Purpose="Tabulation" def:Structure="One record per subject" def:StandardOID="STD.1"
        def:ArchiveLocationID="LF.DS">
        <Description>
          <TranslatedText xml:lang="en">Disposition</TranslatedText>
        </Description>
        <ItemRef ItemOID="IT.DS.STUDYID" OrderNumber="1" Mandatory="Yes" KeySequence="1"/>
        <ItemRef ItemOID="IT.DS.DOMAIN" OrderNumber="2" Mandatory="Yes"/>
        <ItemRef ItemOID="IT.DS.USUBJID" OrderNumber="3" Mandatory="Yes" KeySequence="2" MethodOID="MT.COMPUSUBJID"/>
        <ItemRef ItemOID="IT.DS.DSSEQ" OrderNumber="4" Mandatory="Yes" MethodOID="MT.COMPSEQ"/>
        <ItemRef ItemOID="IT.DS.DSTERM" OrderNumber="5" Mandatory="Yes"/>
        <ItemRef ItemOID="IT.DS.DSDECOD" OrderNumber="6" Mandatory="Yes"/>
        <ItemRef ItemOID="IT.DS.DSUSCHFL" OrderNumber="7" Mandatory="No"/>
        <ItemRef ItemOID="IT.DS.RPHASE" OrderNumber="8" Mandatory="No"/>
        <ItemRef ItemOID="IT.DS.RPPLSTDY" OrderNumber="9" Mandatory="No" MethodOID="MT.COMPRPPLSTDY"/>
        <ItemRef ItemOID="IT.DS.DSSTDTC" OrderNumber="10" Mandatory="Yes"/>
        <ItemRef ItemOID="IT.DS.DSRPSTDY" OrderNumber="11" Mandatory="No" MethodOID="MT.COMPRPSTDY"/>
        <def:Class Name="EVENTS"/>
        <def:leaf ID="LF.DS" xlink:href="ds.xpt">
          <def:title>ds.xpt</def:title>
        </def:leaf>
      </ItemGroupDef>
      <ItemGroupDef OID="IG.BW" Domain="BW" Name="BW" Repeating="Yes" IsReferenceData="No" SASDatasetName="BW"
        Purpose="Tabulation" def:Structure="One record per test per observation time per subject"
        def:StandardOID="STD.1" def:ArchiveLocationID="LF.BW">
        <Description>
          <TranslatedText xml:lang="en">Body Weight</TranslatedText>
        </Description>
        <ItemRef ItemOID="IT.BW.STUDYID" OrderNumber="1" Mandatory="Yes" KeySequence="1"/>
        <ItemRef ItemOID="IT.BW.DOMAIN" OrderNumber="2" Mandatory="Yes"/>
        <ItemRef ItemOID="IT.BW.USUBJID" OrderNumber="3" Mandatory="Yes" KeySequence="2" MethodOID="MT.COMPUSUBJID"/>
        <ItemRef ItemOID="IT.BW.BWSEQ" OrderNumber="4" Mandatory="Yes" MethodOID="MT.COMPSEQ"/>
        <ItemRef ItemOID="IT.BW.BWTESTCD" OrderNumber="5" Mandatory="Yes" KeySequence="3"/>
        <ItemRef ItemOID="IT.BW.BWTEST" OrderNumber="6" Mandatory="Yes"/>
        <ItemRef ItemOID="IT.BW.BWORRES" OrderNumber="7" Mandatory="No"/>
        <ItemRef ItemOID="IT.BW.BWORRESU" OrderNumber="8" Mandatory="No"/>
        <ItemRef ItemOID="IT.BW.BWSTRESC" OrderNumber="9" Mandatory="No" MethodOID="MT.COMPSTRESC"/>
        <ItemRef ItemOID="IT.BW.BWSTRESN" OrderNumber="10" Mandatory="No" MethodOID="MT.COMPSTRESN"/>
        <ItemRef ItemOID="IT.BW.BWSTRESU" OrderNumber="11" Mandatory="No" MethodOID="MT.COMPSTRESU"/>
        <ItemRef ItemOID="IT.BW.RPHASE" OrderNumber="12" Mandatory="No"/>
        <ItemRef ItemOID="IT.BW.RPPLDY" OrderNumber="13" Mandatory="No" MethodOID="MT.COMPRPPLDY"/>
        <ItemRef ItemOID="IT.BW.BWDTC" OrderNumber="14" Mandatory="No" KeySequence="4"/>
        <ItemRef ItemOID="IT.BW.BWRPDY" OrderNumber="15" Mandatory="No" MethodOID="MT.COMPRPDY"/>
        <def:Class Name="FINDINGS"/>
        <def:leaf ID="LF.BW" xlink:href="bw.xpt">
          <def:title>bw.xpt</def:title>
        </def:leaf>
      </ItemGroupDef>
      <ItemGroupDef OID="IG.CL" Domain="CL" Name="CL" Repeating="Yes" IsReferenceData="No" SASDatasetName="CL"
        Purpose="Tabulation" def:Structure="One record per finding per observation time per subject or pool"
        def:StandardOID="STD.1" def:ArchiveLocationID="LF.CL">
        <Description>
          <TranslatedText xml:lang="en">Clinical Observations</TranslatedText>
        </Description>
        <ItemRef ItemOID="IT.CL.STUDYID" OrderNumber="1" Mandatory="Yes" KeySequence="1"/>
        <ItemRef ItemOID="IT.CL.DOMAIN" OrderNumber="2" Mandatory="Yes"/>
        <ItemRef ItemOID="IT.CL.USUBJID" OrderNumber="3" Mandatory="No" KeySequence="2" MethodOID="MT.COMPUSUBJID"/>
        <ItemRef ItemOID="IT.CL.CLSEQ" OrderNumber="4" Mandatory="Yes" MethodOID="MT.COMPSEQ"/>
        <ItemRef ItemOID="IT.CL.CLTESTCD" OrderNumber="5" Mandatory="Yes" KeySequence="3"/>
        <ItemRef ItemOID="IT.CL.CLTEST" OrderNumber="6" Mandatory="Yes"/>
        <ItemRef ItemOID="IT.CL.CLCAT" OrderNumber="7" Mandatory="Yes" KeySequence="4"/>
        <ItemRef ItemOID="IT.CL.CLSCAT" OrderNumber="8" Mandatory="No"/>
        <ItemRef ItemOID="IT.CL.CLORRES" OrderNumber="9" Mandatory="No" KeySequence="5" MethodOID="MT.COMPCLORRES"/>
        <ItemRef ItemOID="IT.CL.CLSTRESC" OrderNumber="10" Mandatory="No"/>
        <ItemRef ItemOID="IT.CL.CLLOC" OrderNumber="11" Mandatory="No"/>
        <ItemRef ItemOID="IT.CL.RPHASE" OrderNumber="12" Mandatory="No"/>
        <ItemRef ItemOID="IT.CL.RPPLDY" OrderNumber="13" Mandatory="No" MethodOID="MT.COMPRPPLDY"/>
        <ItemRef ItemOID="IT.CL.CLDTC" OrderNumber="14" Mandatory="No" KeySequence="6"/>
        <ItemRef ItemOID="IT.CL.CLRPDY" OrderNumber="15" Mandatory="No" MethodOID="MT.COMPRPDY" def:HasNoData="Yes"/>
        <ItemRef ItemOID="IT.CL.CLTPT" OrderNumber="16" Mandatory="No"/>
        <ItemRef ItemOID="IT.CL.CLTPTNUM" OrderNumber="17" Mandatory="No" MethodOID="MT.COMPTPTNUM"/>
        <ItemRef ItemOID="IT.CL.CLELTM" OrderNumber="18" Mandatory="No"/>
        <ItemRef ItemOID="IT.CL.CLTPTREF" OrderNumber="19" Mandatory="No"/>
        <ItemRef ItemOID="IT.CL.CLRFTDTC" OrderNumber="20" Mandatory="No"/>
        <def:Class Name="FINDINGS"/>
        <def:leaf ID="LF.CL" xlink:href="cl.xpt">
          <def:title>cl.xpt</def:title>
        </def:leaf>
      </ItemGroupDef>
      <ItemGroupDef OID="IG.DD" Domain="DD" Name="DD" Repeating="No" IsReferenceData="No" SASDatasetName="DD"
        Purpose="Tabulation" def:Structure="One record per diagnosis per subject" def:StandardOID="STD.1"
        def:ArchiveLocationID="LF.DD">
        <Description>
          <TranslatedText xml:lang="en">Death Diagnosis and Details</TranslatedText>
        </Description>
        <ItemRef ItemOID="IT.DD.STUDYID" OrderNumber="1" Mandatory="Yes" KeySequence="1"/>
        <ItemRef ItemOID="IT.DD.DOMAIN" OrderNumber="2" Mandatory="Yes"/>
        <ItemRef ItemOID="IT.DD.USUBJID" OrderNumber="3" Mandatory="Yes" KeySequence="2" MethodOID="MT.COMPUSUBJID"/>
        <ItemRef ItemOID="IT.DD.DDSEQ" OrderNumber="4" Mandatory="Yes" MethodOID="MT.COMPSEQ"/>
        <ItemRef ItemOID="IT.DD.DDTESTCD" OrderNumber="5" Mandatory="Yes" KeySequence="3"/>
        <ItemRef ItemOID="IT.DD.DDTEST" OrderNumber="6" Mandatory="Yes"/>
        <ItemRef ItemOID="IT.DD.DDORRES" OrderNumber="7" Mandatory="Yes" KeySequence="4"/>
        <ItemRef ItemOID="IT.DD.DDSTRESC" OrderNumber="8" Mandatory="No" MethodOID="MT.COMPSTRESC"/>
        <ItemRef ItemOID="IT.DD.RPHASE" OrderNumber="9" Mandatory="No"/>
        <ItemRef ItemOID="IT.DD.DDDTC" OrderNumber="10" Mandatory="No"/>
        <ItemRef ItemOID="IT.DD.DDRPDY" OrderNumber="11" Mandatory="No" MethodOID="MT.COMPRPDY"/>
        <def:Class Name="FINDINGS"/>
        <def:leaf ID="LF.DD" xlink:href="dd.xpt">
          <def:title>dd.xpt</def:title>
        </def:leaf>
      </ItemGroupDef>
      <ItemGroupDef OID="IG.DP" Domain="DP" Name="DP" Repeating="Yes" IsReferenceData="No" SASDatasetName="DP"
        Purpose="Tabulation" def:Structure="One record per test per observation time per subject"
        def:StandardOID="STD.1" def:ArchiveLocationID="LF.DP">
        <Description>
          <TranslatedText xml:lang="en">Developmental Milestone Test Results</TranslatedText>
        </Description>
        <ItemRef ItemOID="IT.DP.STUDYID" OrderNumber="1" Mandatory="Yes" KeySequence="1"/>
        <ItemRef ItemOID="IT.DP.DOMAIN" OrderNumber="2" Mandatory="Yes"/>
        <ItemRef ItemOID="IT.DP.USUBJID" OrderNumber="3" Mandatory="Yes" KeySequence="2" MethodOID="MT.COMPUSUBJID"/>
        <ItemRef ItemOID="IT.DP.DPSEQ" OrderNumber="4" Mandatory="Yes" MethodOID="MT.COMPSEQ"/>
        <ItemRef ItemOID="IT.DP.DPTESTCD" OrderNumber="5" Mandatory="Yes" KeySequence="3"/>
        <ItemRef ItemOID="IT.DP.DPTEST" OrderNumber="6" Mandatory="Yes"/>
        <ItemRef ItemOID="IT.DP.DPORRES" OrderNumber="7" Mandatory="Yes" KeySequence="4"/>
        <ItemRef ItemOID="IT.DP.DPSTRESC" OrderNumber="8" Mandatory="No" MethodOID="MT.COMPSTRESC"/>
        <ItemRef ItemOID="IT.DP.DPSTAT" OrderNumber="9" Mandatory="No"/>
        <ItemRef ItemOID="IT.DP.DPREASND" OrderNumber="10" Mandatory="No"/>
        <ItemRef ItemOID="IT.DP.DPEXCLFL" OrderNumber="11" Mandatory="No"/>
        <ItemRef ItemOID="IT.DP.DPREASEX" OrderNumber="12" Mandatory="No"/>
        <ItemRef ItemOID="IT.DP.RPHASE" OrderNumber="13" Mandatory="No"/>
        <ItemRef ItemOID="IT.DP.RPPLDY" OrderNumber="14" Mandatory="No" MethodOID="MT.COMPRPPLDY"/>
        <ItemRef ItemOID="IT.DP.DPDTC" OrderNumber="15" Mandatory="No" KeySequence="5"/>
        <ItemRef ItemOID="IT.DP.DPRPDY" OrderNumber="16" Mandatory="No" MethodOID="MT.COMPRPDY"/>
        <def:Class Name="FINDINGS"/>
        <def:leaf ID="LF.DP" xlink:href="dp.xpt">
          <def:title>dp.xpt</def:title>
        </def:leaf>
      </ItemGroupDef>
      <ItemGroupDef OID="IG.FW" Domain="FW" Name="FW" Repeating="Yes" IsReferenceData="No" SASDatasetName="FW"
        Purpose="Tabulation" def:Structure="One record per test per interval per subject or pool"
        def:StandardOID="STD.1" def:ArchiveLocationID="LF.FW">
        <Description>
          <TranslatedText xml:lang="en">Food and Water Consumption</TranslatedText>
        </Description>
        <ItemRef ItemOID="IT.FW.STUDYID" OrderNumber="1" Mandatory="Yes" KeySequence="1"/>
        <ItemRef ItemOID="IT.FW.DOMAIN" OrderNumber="2" Mandatory="Yes"/>
        <ItemRef ItemOID="IT.FW.USUBJID" OrderNumber="3" Mandatory="No" KeySequence="2" MethodOID="MT.COMPUSUBJID"
          def:HasNoData="Yes"/>
        <ItemRef ItemOID="IT.FW.POOLID" OrderNumber="4" Mandatory="No"/>
        <ItemRef ItemOID="IT.FW.FWSEQ" OrderNumber="5" Mandatory="Yes" MethodOID="MT.COMPSEQ"/>
        <ItemRef ItemOID="IT.FW.FWTESTCD" OrderNumber="6" Mandatory="Yes" KeySequence="3"/>
        <ItemRef ItemOID="IT.FW.FWTEST" OrderNumber="7" Mandatory="Yes"/>
        <ItemRef ItemOID="IT.FW.FWORRES" OrderNumber="8" Mandatory="No"/>
        <ItemRef ItemOID="IT.FW.FWORRESU" OrderNumber="9" Mandatory="No"/>
        <ItemRef ItemOID="IT.FW.FWSTRESC" OrderNumber="10" Mandatory="No"/>
        <ItemRef ItemOID="IT.FW.FWSTRESN" OrderNumber="11" Mandatory="No" MethodOID="MT.COMPSTRESN"/>
        <ItemRef ItemOID="IT.FW.FWSTRESU" OrderNumber="12" Mandatory="No"/>
        <ItemRef ItemOID="IT.FW.RPHASE" OrderNumber="13" Mandatory="No"/>
        <ItemRef ItemOID="IT.FW.RPPLDY" OrderNumber="14" Mandatory="No" MethodOID="MT.COMPRPPLDY"/>
        <ItemRef ItemOID="IT.FW.RPPLENDY" OrderNumber="15" Mandatory="No" MethodOID="MT.COMPRPPLENDY"/>
        <ItemRef ItemOID="IT.FW.FWDTC" OrderNumber="16" Mandatory="No" KeySequence="4"/>
        <ItemRef ItemOID="IT.FW.FWENDTC" OrderNumber="17" Mandatory="No" KeySequence="5"/>
        <ItemRef ItemOID="IT.FW.FWRPDY" OrderNumber="18" Mandatory="No" MethodOID="MT.COMPRPDY"/>
        <ItemRef ItemOID="IT.FW.FWRPENDY" OrderNumber="19" Mandatory="No" MethodOID="MT.COMPRPENDY"/>
        <def:Class Name="FINDINGS"/>
        <def:leaf ID="LF.FW" xlink:href="fw.xpt">
          <def:title>fw.xpt</def:title>
        </def:leaf>
      </ItemGroupDef>
      <ItemGroupDef OID="IG.LB" Domain="LB" Name="LB" Repeating="Yes" IsReferenceData="No" SASDatasetName="LB"
        Purpose="Tabulation" def:Structure="One record per test per specimen per observation time per subject or pool"
        def:StandardOID="STD.1" def:ArchiveLocationID="LF.LB">
        <Description>
          <TranslatedText xml:lang="en">Laboratory Test Results</TranslatedText>
        </Description>
        <ItemRef ItemOID="IT.LB.STUDYID" OrderNumber="1" Mandatory="Yes" KeySequence="1"/>
        <ItemRef ItemOID="IT.LB.DOMAIN" OrderNumber="2" Mandatory="Yes"/>
        <ItemRef ItemOID="IT.LB.USUBJID" OrderNumber="3" Mandatory="No" KeySequence="2" MethodOID="MT.COMPUSUBJID"/>
        <ItemRef ItemOID="IT.LB.LBSEQ" OrderNumber="4" Mandatory="Yes" MethodOID="MT.COMPSEQ"/>
        <ItemRef ItemOID="IT.LB.LBTESTCD" OrderNumber="5" Mandatory="Yes" KeySequence="3"/>
        <ItemRef ItemOID="IT.LB.LBTEST" OrderNumber="6" Mandatory="Yes"/>
        <ItemRef ItemOID="IT.LB.LBCAT" OrderNumber="7" Mandatory="No"/>
        <ItemRef ItemOID="IT.LB.LBSCAT" OrderNumber="8" Mandatory="No"/>
        <ItemRef ItemOID="IT.LB.LBORRES" OrderNumber="9" Mandatory="No"/>
        <ItemRef ItemOID="IT.LB.LBORRESU" OrderNumber="10" Mandatory="No"/>
        <ItemRef ItemOID="IT.LB.LBSTRESC" OrderNumber="11" Mandatory="No" MethodOID="MT.COMPSTRESC"/>
        <ItemRef ItemOID="IT.LB.LBSTRESN" OrderNumber="12" Mandatory="No" MethodOID="MT.COMPSTRESN"/>
        <ItemRef ItemOID="IT.LB.LBSTRESU" OrderNumber="13" Mandatory="No" MethodOID="MT.COMPSTRESU"/>
        <ItemRef ItemOID="IT.LB.LBSTAT" OrderNumber="14" Mandatory="No"/>
        <ItemRef ItemOID="IT.LB.LBREASND" OrderNumber="15" Mandatory="No"/>
        <ItemRef ItemOID="IT.LB.LBSPEC" OrderNumber="16" Mandatory="No" KeySequence="4"/>
        <ItemRef ItemOID="IT.LB.LBMETHOD" OrderNumber="17" Mandatory="No" KeySequence="5"/>
        <ItemRef ItemOID="IT.LB.LBBLFL" OrderNumber="18" Mandatory="No" MethodOID="MT.COMPBLFL" def:HasNoData="Yes"/>
        <ItemRef ItemOID="IT.LB.LBDRVFL" OrderNumber="19" Mandatory="No"/>
        <ItemRef ItemOID="IT.LB.LBUSCHFL" OrderNumber="20" Mandatory="No" def:HasNoData="Yes"/>
        <ItemRef ItemOID="IT.LB.RPHASE" OrderNumber="21" Mandatory="No"/>
        <ItemRef ItemOID="IT.LB.RPPLDY" OrderNumber="22" Mandatory="No" MethodOID="MT.COMPRPPLDY"/>
        <ItemRef ItemOID="IT.LB.LBDTC" OrderNumber="23" Mandatory="No" KeySequence="6"/>
        <ItemRef ItemOID="IT.LB.LBRPDY" OrderNumber="24" Mandatory="No" MethodOID="MT.COMPRPDY"/>
        <def:Class Name="FINDINGS"/>
        <def:leaf ID="LF.LB" xlink:href="lb.xpt">
          <def:title>lb.xpt</def:title>
        </def:leaf>
      </ItemGroupDef>
      <ItemGroupDef OID="IG.OM" Domain="OM" Name="OM" Repeating="Yes" IsReferenceData="No" SASDatasetName="OM"
        Purpose="Tabulation" def:Structure="One record per test per specimen per subject" def:StandardOID="STD.1"
        def:ArchiveLocationID="LF.OM">
        <Description>
          <TranslatedText xml:lang="en">Organ Measurements</TranslatedText>
        </Description>
        <ItemRef ItemOID="IT.OM.STUDYID" OrderNumber="1" Mandatory="Yes" KeySequence="1"/>
        <ItemRef ItemOID="IT.OM.DOMAIN" OrderNumber="2" Mandatory="Yes"/>
        <ItemRef ItemOID="IT.OM.USUBJID" OrderNumber="3" Mandatory="Yes" KeySequence="2" MethodOID="MT.COMPUSUBJID"/>
        <ItemRef ItemOID="IT.OM.OMSEQ" OrderNumber="4" Mandatory="Yes" MethodOID="MT.COMPSEQ"/>
        <ItemRef ItemOID="IT.OM.OMTESTCD" OrderNumber="5" Mandatory="Yes" KeySequence="3"/>
        <ItemRef ItemOID="IT.OM.OMTEST" OrderNumber="6" Mandatory="Yes"/>
        <ItemRef ItemOID="IT.OM.OMORRES" OrderNumber="7" Mandatory="No"/>
        <ItemRef ItemOID="IT.OM.OMORRESU" OrderNumber="8" Mandatory="No"/>
        <ItemRef ItemOID="IT.OM.OMSTRESC" OrderNumber="9" Mandatory="No" MethodOID="MT.COMPSTRESC"/>
        <ItemRef ItemOID="IT.OM.OMSTRESN" OrderNumber="10" Mandatory="No" MethodOID="MT.COMPSTRESN"/>
        <ItemRef ItemOID="IT.OM.OMSTRESU" OrderNumber="11" Mandatory="No" MethodOID="MT.COMPSTRESU"/>
        <ItemRef ItemOID="IT.OM.OMSPEC" OrderNumber="12" Mandatory="Yes" KeySequence="4" MethodOID="MT.COMPTISSUE"/>
        <ItemRef ItemOID="IT.OM.RPHASE" OrderNumber="13" Mandatory="No"/>
        <ItemRef ItemOID="IT.OM.RPPLDY" OrderNumber="14" Mandatory="No" MethodOID="MT.COMPRPPLDY"/>
        <ItemRef ItemOID="IT.OM.OMDTC" OrderNumber="15" Mandatory="No"/>
        <ItemRef ItemOID="IT.OM.OMRPDY" OrderNumber="16" Mandatory="No" MethodOID="MT.COMPRPDY"/>
        <def:Class Name="FINDINGS"/>
        <def:leaf ID="LF.OM" xlink:href="om.xpt">
          <def:title>om.xpt</def:title>
        </def:leaf>
      </ItemGroupDef>
      <ItemGroupDef OID="IG.SC" Domain="SC" Name="SC" Repeating="No" IsReferenceData="No" SASDatasetName="SC"
        Purpose="Tabulation" def:Structure="One record per characteristic per subject" def:StandardOID="STD.1"
        def:ArchiveLocationID="LF.SC">
        <Description>
          <TranslatedText xml:lang="en">Subject Characteristics</TranslatedText>
        </Description>
        <ItemRef ItemOID="IT.SC.STUDYID" OrderNumber="1" Mandatory="Yes" KeySequence="1"/>
        <ItemRef ItemOID="IT.SC.DOMAIN" OrderNumber="2" Mandatory="Yes"/>
        <ItemRef ItemOID="IT.SC.USUBJID" OrderNumber="3" Mandatory="Yes" KeySequence="2" MethodOID="MT.COMPUSUBJID"/>
        <ItemRef ItemOID="IT.SC.SCSEQ" OrderNumber="4" Mandatory="Yes" MethodOID="MT.COMPSEQ"/>
        <ItemRef ItemOID="IT.SC.SCTESTCD" OrderNumber="5" Mandatory="Yes" KeySequence="3"/>
        <ItemRef ItemOID="IT.SC.SCTEST" OrderNumber="6" Mandatory="Yes"/>
        <ItemRef ItemOID="IT.SC.SCORRES" OrderNumber="7" Mandatory="No"/>
        <ItemRef ItemOID="IT.SC.SCSTRESC" OrderNumber="8" Mandatory="No" MethodOID="MT.COMPSTRESC"/>
        <def:Class Name="FINDINGS"/>
        <def:leaf ID="LF.SC" xlink:href="sc.xpt">
          <def:title>sc.xpt</def:title>
        </def:leaf>
      </ItemGroupDef>
      <ItemGroupDef OID="IG.POOLDEF" Domain="POOLDEF" Name="POOLDEF" Repeating="Yes" IsReferenceData="No"
        SASDatasetName="POOLDEF" Purpose="Tabulation" def:Structure="One record per subject per pool"
        def:StandardOID="STD.1" def:ArchiveLocationID="LF.POOLDEF">
        <Description>
          <TranslatedText xml:lang="en">Pool Definition</TranslatedText>
        </Description>
        <ItemRef ItemOID="IT.POOLDEF.STUDYID" OrderNumber="1" Mandatory="Yes" KeySequence="1"/>
        <ItemRef ItemOID="IT.POOLDEF.POOLID" OrderNumber="2" Mandatory="Yes" KeySequence="3"/>
        <ItemRef ItemOID="IT.POOLDEF.USUBJID" OrderNumber="3" Mandatory="Yes" KeySequence="2" MethodOID="MT.COMPUSUBJID"/>
        <def:Class Name="RELATIONSHIP"/>
        <def:leaf ID="LF.POOLDEF" xlink:href="pooldef.xpt">
          <def:title>pooldef.xpt</def:title>
        </def:leaf>
      </ItemGroupDef>
      <ItemGroupDef OID="IG.SUPPCL" Domain="SUPPCL" Name="SUPPCL" Repeating="Yes" IsReferenceData="No"
        SASDatasetName="SUPPCL" Purpose="Tabulation"
        def:Structure="One record per supplemental qualifier value per original domain record" def:StandardOID="STD.1"
        def:ArchiveLocationID="LF.SUPPCL">
        <Description>
          <TranslatedText xml:lang="en">Supplemental Qualifiers for CL</TranslatedText>
        </Description>
        <ItemRef ItemOID="IT.SUPPCL.STUDYID" OrderNumber="1" Mandatory="Yes" KeySequence="1"/>
        <ItemRef ItemOID="IT.SUPPCL.RDOMAIN" OrderNumber="2" Mandatory="Yes" KeySequence="2"/>
        <ItemRef ItemOID="IT.SUPPCL.USUBJID" OrderNumber="3" Mandatory="No" KeySequence="3" MethodOID="MT.COMPUSUBJID"/>
        <ItemRef ItemOID="IT.SUPPCL.IDVAR" OrderNumber="4" Mandatory="No" KeySequence="4"/>
        <ItemRef ItemOID="IT.SUPPCL.IDVARVAL" OrderNumber="5" Mandatory="No" KeySequence="5"/>
        <ItemRef ItemOID="IT.SUPPCL.QNAM" OrderNumber="6" Mandatory="Yes" KeySequence="6"/>
        <ItemRef ItemOID="IT.SUPPCL.QLABEL" OrderNumber="7" Mandatory="Yes"/>
        <ItemRef ItemOID="IT.SUPPCL.QVAL" OrderNumber="8" Mandatory="Yes"/>
        <ItemRef ItemOID="IT.SUPPCL.QORIG" OrderNumber="9" Mandatory="No"/>
        <def:Class Name="RELATIONSHIP"/>
        <def:leaf ID="LF.SUPPCL" xlink:href="suppcl.xpt">
          <def:title>suppcl.xpt</def:title>
        </def:leaf>
      </ItemGroupDef>
      <ItemDef OID="IT.TA.STUDYID" Name="STUDYID" DataType="text" Length="10" SASFieldName="STUDYID">
        <Description>
          <TranslatedText xml:lang="en">Study Identifier</TranslatedText>
        </Description>
        <def:Origin Type="Other"/>
      </ItemDef>
      <ItemDef OID="IT.TA.DOMAIN" Name="DOMAIN" DataType="text" Length="2" SASFieldName="DOMAIN">
        <Description>
          <TranslatedText xml:lang="en">Domain Abbreviation</TranslatedText>
        </Description>
        <def:Origin Type="Other"/>
      </ItemDef>
      <ItemDef OID="IT.TA.ARMCD" Name="ARMCD" DataType="text" Length="3" SASFieldName="ARMCD">
        <Description>
          <TranslatedText xml:lang="en">Planned Arm Code</TranslatedText>
        </Description>
        <CodeListRef CodeListOID="CL.ARMCD"/>
        <def:Origin Type="Other"/>
      </ItemDef>
      <ItemDef OID="IT.TA.ARM" Name="ARM" DataType="text" Length="37" SASFieldName="ARM">
        <Description>
          <TranslatedText xml:lang="en">Description of Planned Arm</TranslatedText>
        </Description>
        <CodeListRef CodeListOID="CL.ARM"/>
        <def:Origin Type="Other"/>
      </ItemDef>
      <ItemDef OID="IT.TA.TAETORD" Name="TAETORD" DataType="integer" Length="1" SASFieldName="TAETORD">
        <Description>
          <TranslatedText xml:lang="en">Order of Element within Arm</TranslatedText>
        </Description>
        <def:Origin Type="Other"/>
      </ItemDef>
      <ItemDef OID="IT.TA.ETCD" Name="ETCD" DataType="text" Length="8" SASFieldName="ETCD">
        <Description>
          <TranslatedText xml:lang="en">Element Code</TranslatedText>
        </Description>
        <CodeListRef CodeListOID="CL.ETCD"/>
        <def:Origin Type="Other"/>
      </ItemDef>
      <ItemDef OID="IT.TA.ELEMENT" Name="ELEMENT" DataType="text" Length="27" SASFieldName="ELEMENT">
        <Description>
          <TranslatedText xml:lang="en">Description of Element</TranslatedText>
        </Description>
        <CodeListRef CodeListOID="CL.ELEMENT"/>
        <def:Origin Type="Other"/>
      </ItemDef>
      <ItemDef OID="IT.TA.EPOCH" Name="EPOCH" DataType="text" Length="13" SASFieldName="EPOCH">
        <Description>
          <TranslatedText xml:lang="en">Trial Epoch</TranslatedText>
        </Description>
        <def:Origin Type="Other"/>
      </ItemDef>
      <ItemDef OID="IT.TE.STUDYID" Name="STUDYID" DataType="text" Length="10" SASFieldName="STUDYID">
        <Description>
          <TranslatedText xml:lang="en">Study Identifier</TranslatedText>
        </Description>
        <def:Origin Type="Other"/>
      </ItemDef>
      <ItemDef OID="IT.TE.DOMAIN" Name="DOMAIN" DataType="text" Length="2" SASFieldName="DOMAIN">
        <Description>
          <TranslatedText xml:lang="en">Domain Abbreviation</TranslatedText>
        </Description>
        <def:Origin Type="Other"/>
      </ItemDef>
      <ItemDef OID="IT.TE.ETCD" Name="ETCD" DataType="text" Length="8" SASFieldName="ETCD">
        <Description>
          <TranslatedText xml:lang="en">Element Code</TranslatedText>
        </Description>
        <CodeListRef CodeListOID="CL.ETCD"/>
        <def:Origin Type="Other"/>
      </ItemDef>
      <ItemDef OID="IT.TE.ELEMENT" Name="ELEMENT" DataType="text" Length="27" SASFieldName="ELEMENT">
        <Description>
          <TranslatedText xml:lang="en">Description of Element</TranslatedText>
        </Description>
        <CodeListRef CodeListOID="CL.ELEMENT"/>
        <def:Origin Type="Other"/>
      </ItemDef>
      <ItemDef OID="IT.TE.TESTRL" Name="TESTRL" DataType="text" Length="48" SASFieldName="TESTRL">
        <Description>
          <TranslatedText xml:lang="en">Rule for Start of Element</TranslatedText>
        </Description>
        <def:Origin Type="Other"/>
      </ItemDef>
      <ItemDef OID="IT.TE.TEENRL" Name="TEENRL" DataType="text" Length="46" SASFieldName="TEENRL">
        <Description>
          <TranslatedText xml:lang="en">Rule for End of Element</TranslatedText>
        </Description>
        <def:Origin Type="Other"/>
      </ItemDef>
      <ItemDef OID="IT.TP.STUDYID" Name="STUDYID" DataType="text" Length="10" SASFieldName="STUDYID">
        <Description>
          <TranslatedText xml:lang="en">Study Identifier</TranslatedText>
        </Description>
        <def:Origin Type="Other"/>
      </ItemDef>
      <ItemDef OID="IT.TP.DOMAIN" Name="DOMAIN" DataType="text" Length="2" SASFieldName="DOMAIN">
        <Description>
          <TranslatedText xml:lang="en">Domain Abbreviation</TranslatedText>
        </Description>
        <def:Origin Type="Other"/>
      </ItemDef>
      <ItemDef OID="IT.TP.RPATHCD" Name="RPATHCD" DataType="text" Length="3" SASFieldName="RPATHCD">
        <Description>
          <TranslatedText xml:lang="en">Planned Repro Path Code</TranslatedText>
        </Description>
        <CodeListRef CodeListOID="CL.TP.RPATHCD"/>
        <def:Origin Type="Other"/>
      </ItemDef>
      <ItemDef OID="IT.TP.RPATH" Name="RPATH" DataType="text" Length="15" SASFieldName="RPATH">
        <Description>
          <TranslatedText xml:lang="en">Description of Planned Repro Path</TranslatedText>
        </Description>
        <CodeListRef CodeListOID="CL.TP.RPATH"/>
        <def:Origin Type="Other"/>
      </ItemDef>
      <ItemDef OID="IT.TP.TPSTGORD" Name="TPSTGORD" DataType="integer" Length="1" SASFieldName="TPSTGORD">
        <Description>
          <TranslatedText xml:lang="en">Order of Repro Stage within Repro Path</TranslatedText>
        </Description>
        <def:Origin Type="Other"/>
      </ItemDef>
      <ItemDef OID="IT.TP.RSTGCD" Name="RSTGCD" DataType="text" Length="3" SASFieldName="RSTGCD">
        <Description>
          <TranslatedText xml:lang="en">Repro Stage Code</TranslatedText>
        </Description>
        <CodeListRef CodeListOID="CL.TP.RSTGCD"/>
        <def:Origin Type="Other"/>
      </ItemDef>
      <ItemDef OID="IT.TP.RSTAGE" Name="RSTAGE" DataType="text" Length="9" SASFieldName="RSTAGE">
        <Description>
          <TranslatedText xml:lang="en">Description of Repro Stage</TranslatedText>
        </Description>
        <CodeListRef CodeListOID="CL.TP.RSTAGE"/>
        <def:Origin Type="Other"/>
      </ItemDef>
      <ItemDef OID="IT.TP.RPHASE" Name="RPHASE" DataType="text" Length="9" SASFieldName="RPHASE">
        <Description>
          <TranslatedText xml:lang="en">Repro Phase</TranslatedText>
        </Description>
        <CodeListRef CodeListOID="CL.NCDPHASE"/>
        <def:Origin Type="Other"/>
      </ItemDef>
      <ItemDef OID="IT.TP.RPRFDY" Name="RPRFDY" DataType="integer" Length="1" SASFieldName="RPRFDY">
        <Description>
          <TranslatedText xml:lang="en">Repro Phase Start Reference Day</TranslatedText>
        </Description>
        <def:Origin Type="Other"/>
      </ItemDef>
      <ItemDef OID="IT.TS.STUDYID" Name="STUDYID" DataType="text" Length="10" SASFieldName="STUDYID">
        <Description>
          <TranslatedText xml:lang="en">Study Identifier</TranslatedText>
        </Description>
        <def:Origin Type="Other"/>
      </ItemDef>
      <ItemDef OID="IT.TS.DOMAIN" Name="DOMAIN" DataType="text" Length="2" SASFieldName="DOMAIN">
        <Description>
          <TranslatedText xml:lang="en">Domain Abbreviation</TranslatedText>
        </Description>
        <def:Origin Type="Other"/>
      </ItemDef>
      <ItemDef OID="IT.TS.TSSEQ" Name="TSSEQ" DataType="integer" Length="2" SASFieldName="TSSEQ"
        def:CommentOID="COM.CMTTSSEQ">
        <Description>
          <TranslatedText xml:lang="en">Sequence Number</TranslatedText>
        </Description>
        <def:Origin Type="Other"/>
      </ItemDef>
      <ItemDef OID="IT.TS.TSGRPID" Name="TSGRPID" DataType="text" Length="1" SASFieldName="TSGRPID"
        def:CommentOID="COM.NODATA.CMTNOTPOP">
        <Description>
          <TranslatedText xml:lang="en">Group Identifier</TranslatedText>
        </Description>
        <def:Origin Type="Other"/>
      </ItemDef>
      <ItemDef OID="IT.TS.TSPARMCD" Name="TSPARMCD" DataType="text" Length="8" SASFieldName="TSPARMCD">
        <Description>
          <TranslatedText xml:lang="en">Trial Summary Parameter Short Name</TranslatedText>
        </Description>
        <CodeListRef CodeListOID="CL.STSPRMCD"/>
        <def:Origin Type="Other"/>
      </ItemDef>
      <ItemDef OID="IT.TS.TSPARM" Name="TSPARM" DataType="text" Length="38" SASFieldName="TSPARM">
        <Description>
          <TranslatedText xml:lang="en">Trial Summary Parameter</TranslatedText>
        </Description>
        <CodeListRef CodeListOID="CL.STSPRM"/>
        <def:Origin Type="Other"/>
      </ItemDef>
      <ItemDef OID="IT.TS.TSVAL" Name="TSVAL" DataType="text" Length="199" SASFieldName="TSVAL">
        <Description>
          <TranslatedText xml:lang="en">Parameter Value</TranslatedText>
        </Description>
        <def:Origin Type="Other"/>
        <def:ValueListRef ValueListOID="VL.TS.TSVAL"/>
      </ItemDef>
      <ItemDef OID="IT.TS.TSVAL1" Name="TSVAL1" DataType="text" Length="54" SASFieldName="TSVAL1">
        <Description>
          <TranslatedText xml:lang="en">Parameter Value1</TranslatedText>
        </Description>
        <def:Origin Type="Other"/>
      </ItemDef>
      <ItemDef OID="IT.TT.STUDYID" Name="STUDYID" DataType="text" Length="10" SASFieldName="STUDYID">
        <Description>
          <TranslatedText xml:lang="en">Study Identifier</TranslatedText>
        </Description>
        <def:Origin Type="Other"/>
      </ItemDef>
      <ItemDef OID="IT.TT.DOMAIN" Name="DOMAIN" DataType="text" Length="2" SASFieldName="DOMAIN">
        <Description>
          <TranslatedText xml:lang="en">Domain Abbreviation</TranslatedText>
        </Description>
        <def:Origin Type="Other"/>
      </ItemDef>
      <ItemDef OID="IT.TT.RSTGCD" Name="RSTGCD" DataType="text" Length="3" SASFieldName="RSTGCD">
        <Description>
          <TranslatedText xml:lang="en">Repro Stage Code</TranslatedText>
        </Description>
        <CodeListRef CodeListOID="CL.TT.RSTGCD"/>
        <def:Origin Type="Other"/>
      </ItemDef>
      <ItemDef OID="IT.TT.RSTAGE" Name="RSTAGE" DataType="text" Length="9" SASFieldName="RSTAGE">
        <Description>
          <TranslatedText xml:lang="en">Description of Repro Stage</TranslatedText>
        </Description>
        <CodeListRef CodeListOID="CL.TT.RSTAGE"/>
        <def:Origin Type="Other"/>
      </ItemDef>
      <ItemDef OID="IT.TT.TTSTRL" Name="TTSTRL" DataType="text" Length="5" SASFieldName="TTSTRL">
        <Description>
          <TranslatedText xml:lang="en">Rule for Start of Repro Stage</TranslatedText>
        </Description>
        <def:Origin Type="Other"/>
      </ItemDef>
      <ItemDef OID="IT.TT.TTENRL" Name="TTENRL" DataType="text" Length="9" SASFieldName="TTENRL">
        <Description>
          <TranslatedText xml:lang="en">Rule for End of Repro Stage</TranslatedText>
        </Description>
        <def:Origin Type="Other"/>
      </ItemDef>
      <ItemDef OID="IT.TX.STUDYID" Name="STUDYID" DataType="text" Length="10" SASFieldName="STUDYID">
        <Description>
          <TranslatedText xml:lang="en">Study Identifier</TranslatedText>
        </Description>
        <def:Origin Type="Other"/>
      </ItemDef>
      <ItemDef OID="IT.TX.DOMAIN" Name="DOMAIN" DataType="text" Length="2" SASFieldName="DOMAIN">
        <Description>
          <TranslatedText xml:lang="en">Domain Abbreviation</TranslatedText>
        </Description>
        <def:Origin Type="Other"/>
      </ItemDef>
      <ItemDef OID="IT.TX.SETCD" Name="SETCD" DataType="text" Length="3" SASFieldName="SETCD">
        <Description>
          <TranslatedText xml:lang="en">Set Code</TranslatedText>
        </Description>
        <CodeListRef CodeListOID="CL.SETCD"/>
        <def:Origin Type="Other"/>
      </ItemDef>
      <ItemDef OID="IT.TX.SET" Name="SET" DataType="text" Length="37" SASFieldName="SET">
        <Description>
          <TranslatedText xml:lang="en">Set Description</TranslatedText>
        </Description>
        <CodeListRef CodeListOID="CL.SET"/>
        <def:Origin Type="Other"/>
      </ItemDef>
      <ItemDef OID="IT.TX.TXSEQ" Name="TXSEQ" DataType="integer" Length="2" SASFieldName="TXSEQ"
        def:CommentOID="COM.CMTTXSEQ">
        <Description>
          <TranslatedText xml:lang="en">Sequence Number</TranslatedText>
        </Description>
        <def:Origin Type="Other"/>
      </ItemDef>
      <ItemDef OID="IT.TX.TXPARMCD" Name="TXPARMCD" DataType="text" Length="8" SASFieldName="TXPARMCD">
        <Description>
          <TranslatedText xml:lang="en">Trial Set Parameter Short Name</TranslatedText>
        </Description>
        <CodeListRef CodeListOID="CL.STSPRMCD"/>
        <def:Origin Type="Other"/>
      </ItemDef>
      <ItemDef OID="IT.TX.TXPARM" Name="TXPARM" DataType="text" Length="33" SASFieldName="TXPARM">
        <Description>
          <TranslatedText xml:lang="en">Trial Set Parameter</TranslatedText>
        </Description>
        <CodeListRef CodeListOID="CL.STSPRM"/>
        <def:Origin Type="Other"/>
      </ItemDef>
      <ItemDef OID="IT.TX.TXVAL" Name="TXVAL" DataType="text" Length="37" SASFieldName="TXVAL">
        <Description>
          <TranslatedText xml:lang="en">Trial Set Parameter Value</TranslatedText>
        </Description>
        <def:Origin Type="Other"/>
        <def:ValueListRef ValueListOID="VL.TX.TXVAL"/>
      </ItemDef>
      <ItemDef OID="IT.CO.STUDYID" Name="STUDYID" DataType="text" Length="10" SASFieldName="STUDYID">
        <Description>
          <TranslatedText xml:lang="en">Study Identifier</TranslatedText>
        </Description>
        <def:Origin Type="Other"/>
      </ItemDef>
      <ItemDef OID="IT.CO.DOMAIN" Name="DOMAIN" DataType="text" Length="2" SASFieldName="DOMAIN">
        <Description>
          <TranslatedText xml:lang="en">Domain Abbreviation</TranslatedText>
        </Description>
        <def:Origin Type="Other"/>
      </ItemDef>
      <ItemDef OID="IT.CO.RDOMAIN" Name="RDOMAIN" DataType="text" Length="2" SASFieldName="RDOMAIN">
        <Description>
          <TranslatedText xml:lang="en">Related Domain Abbreviation</TranslatedText>
        </Description>
        <CodeListRef CodeListOID="CL.CO.RDOMAIN"/>
        <def:Origin Type="Other"/>
      </ItemDef>
      <ItemDef OID="IT.CO.USUBJID" Name="USUBJID" DataType="text" Length="15" SASFieldName="USUBJID">
        <Description>
          <TranslatedText xml:lang="en">Unique Subject Identifier</TranslatedText>
        </Description>
        <def:Origin Type="Other"/>
      </ItemDef>
      <ItemDef OID="IT.CO.COSEQ" Name="COSEQ" DataType="integer" Length="1" SASFieldName="COSEQ">
        <Description>
          <TranslatedText xml:lang="en">Sequence Number</TranslatedText>
        </Description>
        <def:Origin Type="Other"/>
      </ItemDef>
      <ItemDef OID="IT.CO.IDVAR" Name="IDVAR" DataType="text" Length="5" SASFieldName="IDVAR">
        <Description>
          <TranslatedText xml:lang="en">Identifying Variable</TranslatedText>
        </Description>
        <def:Origin Type="Other"/>
      </ItemDef>
      <ItemDef OID="IT.CO.IDVARVAL" Name="IDVARVAL" DataType="text" Length="1" SASFieldName="IDVARVAL">
        <Description>
          <TranslatedText xml:lang="en">Identifying Variable Value</TranslatedText>
        </Description>
        <def:Origin Type="Other"/>
      </ItemDef>
      <ItemDef OID="IT.CO.COVAL" Name="COVAL" DataType="text" Length="24" SASFieldName="COVAL">
        <Description>
          <TranslatedText xml:lang="en">Comment</TranslatedText>
        </Description>
        <def:Origin Type="Collected"/>
      </ItemDef>
      <ItemDef OID="IT.CO.RPHASE" Name="RPHASE" DataType="text" Length="9" SASFieldName="RPHASE">
        <Description>
          <TranslatedText xml:lang="en">Repro Phase</TranslatedText>
        </Description>
        <CodeListRef CodeListOID="CL.NCDPHASE"/>
        <def:Origin Type="Other"/>
      </ItemDef>
      <ItemDef OID="IT.CO.CODTC" Name="CODTC" DataType="datetime" SASFieldName="CODTC" def:CommentOID="COM.NODATA">
        <Description>
          <TranslatedText xml:lang="en">Date/Time of Comment</TranslatedText>
        </Description>
        <def:Origin Type="Collected"/>
      </ItemDef>
      <ItemDef OID="IT.DM.STUDYID" Name="STUDYID" DataType="text" Length="10" SASFieldName="STUDYID">
        <Description>
          <TranslatedText xml:lang="en">Study Identifier</TranslatedText>
        </Description>
        <def:Origin Type="Other"/>
      </ItemDef>
      <ItemDef OID="IT.DM.DOMAIN" Name="DOMAIN" DataType="text" Length="2" SASFieldName="DOMAIN">
        <Description>
          <TranslatedText xml:lang="en">Domain Abbreviation</TranslatedText>
        </Description>
        <def:Origin Type="Other"/>
      </ItemDef>
      <ItemDef OID="IT.DM.USUBJID" Name="USUBJID" DataType="text" Length="15" SASFieldName="USUBJID">
        <Description>
          <TranslatedText xml:lang="en">Unique Subject Identifier</TranslatedText>
        </Description>
        <def:Origin Type="Other"/>
      </ItemDef>
      <ItemDef OID="IT.DM.SUBJID" Name="SUBJID" DataType="text" Length="4" SASFieldName="SUBJID">
        <Description>
          <TranslatedText xml:lang="en">Subject Identifier for the Study</TranslatedText>
        </Description>
        <def:Origin Type="Other"/>
      </ItemDef>
      <ItemDef OID="IT.DM.RFSTDTC" Name="RFSTDTC" DataType="date" SASFieldName="RFSTDTC" def:CommentOID="COM.CMTRFSTDTC">
        <Description>
          <TranslatedText xml:lang="en">Subject Reference Start Date/Time</TranslatedText>
        </Description>
        <def:Origin Type="Collected"/>
      </ItemDef>
      <ItemDef OID="IT.DM.RFENDTC" Name="RFENDTC" DataType="date" SASFieldName="RFENDTC" def:CommentOID="COM.CMTRFENDTC">
        <Description>
          <TranslatedText xml:lang="en">Subject Reference End Date/Time</TranslatedText>
        </Description>
        <def:Origin Type="Collected"/>
      </ItemDef>
      <ItemDef OID="IT.DM.RFXSTDTC" Name="RFXSTDTC" DataType="datetime" SASFieldName="RFXSTDTC">
        <Description>
          <TranslatedText xml:lang="en">Date/Time of First Study Treatment</TranslatedText>
        </Description>
        <def:Origin Type="Other"/>
      </ItemDef>
      <ItemDef OID="IT.DM.RFXENDTC" Name="RFXENDTC" DataType="datetime" SASFieldName="RFXENDTC">
        <Description>
          <TranslatedText xml:lang="en">Date/Time of Last Study Treatment</TranslatedText>
        </Description>
        <def:Origin Type="Other"/>
      </ItemDef>
      <ItemDef OID="IT.DM.BRTHDTC" Name="BRTHDTC" DataType="date" SASFieldName="BRTHDTC">
        <Description>
          <TranslatedText xml:lang="en">Date/Time of Birth</TranslatedText>
        </Description>
        <def:Origin Type="Collected"/>
      </ItemDef>
      <ItemDef OID="IT.DM.AGE" Name="AGE" DataType="integer" Length="1" SASFieldName="AGE">
        <Description>
          <TranslatedText xml:lang="en">Age</TranslatedText>
        </Description>
        <def:Origin Type="Other"/>
      </ItemDef>
      <ItemDef OID="IT.DM.AGEU" Name="AGEU" DataType="text" Length="4" SASFieldName="AGEU">
        <Description>
          <TranslatedText xml:lang="en">Age Unit</TranslatedText>
        </Description>
        <CodeListRef CodeListOID="CL.AGEU"/>
        <def:Origin Type="Other"/>
      </ItemDef>
      <ItemDef OID="IT.DM.SEX" Name="SEX" DataType="text" Length="1" SASFieldName="SEX">
        <Description>
          <TranslatedText xml:lang="en">Sex</TranslatedText>
        </Description>
        <CodeListRef CodeListOID="CL.SEX"/>
        <def:Origin Type="Collected"/>
      </ItemDef>
      <ItemDef OID="IT.DM.ARMCD" Name="ARMCD" DataType="text" Length="3" SASFieldName="ARMCD">
        <Description>
          <TranslatedText xml:lang="en">Planned Arm Code</TranslatedText>
        </Description>
        <CodeListRef CodeListOID="CL.ARMCD"/>
        <def:Origin Type="Other"/>
      </ItemDef>
      <ItemDef OID="IT.DM.ARM" Name="ARM" DataType="text" Length="37" SASFieldName="ARM">
        <Description>
          <TranslatedText xml:lang="en">Description of Planned Arm</TranslatedText>
        </Description>
        <CodeListRef CodeListOID="CL.ARM"/>
        <def:Origin Type="Other"/>
      </ItemDef>
      <ItemDef OID="IT.DM.SETCD" Name="SETCD" DataType="text" Length="3" SASFieldName="SETCD">
        <Description>
          <TranslatedText xml:lang="en">Set Code</TranslatedText>
        </Description>
        <CodeListRef CodeListOID="CL.DM.SETCD"/>
        <def:Origin Type="Other"/>
      </ItemDef>
      <ItemDef OID="IT.DM.RPATHCD" Name="RPATHCD" DataType="text" Length="3" SASFieldName="RPATHCD">
        <Description>
          <TranslatedText xml:lang="en">Planned Repro Path Code</TranslatedText>
        </Description>
        <def:Origin Type="Other"/>
      </ItemDef>
      <ItemDef OID="IT.SE.STUDYID" Name="STUDYID" DataType="text" Length="10" SASFieldName="STUDYID">
        <Description>
          <TranslatedText xml:lang="en">Study Identifier</TranslatedText>
        </Description>
        <def:Origin Type="Other"/>
      </ItemDef>
      <ItemDef OID="IT.SE.DOMAIN" Name="DOMAIN" DataType="text" Length="2" SASFieldName="DOMAIN">
        <Description>
          <TranslatedText xml:lang="en">Domain Abbreviation</TranslatedText>
        </Description>
        <def:Origin Type="Other"/>
      </ItemDef>
      <ItemDef OID="IT.SE.USUBJID" Name="USUBJID" DataType="text" Length="15" SASFieldName="USUBJID">
        <Description>
          <TranslatedText xml:lang="en">Unique Subject Identifier</TranslatedText>
        </Description>
        <def:Origin Type="Other"/>
      </ItemDef>
      <ItemDef OID="IT.SE.SESEQ" Name="SESEQ" DataType="integer" Length="1" SASFieldName="SESEQ">
        <Description>
          <TranslatedText xml:lang="en">Sequence Number</TranslatedText>
        </Description>
        <def:Origin Type="Other"/>
      </ItemDef>
      <ItemDef OID="IT.SE.ETCD" Name="ETCD" DataType="text" Length="8" SASFieldName="ETCD">
        <Description>
          <TranslatedText xml:lang="en">Element Code</TranslatedText>
        </Description>
        <CodeListRef CodeListOID="CL.ETCD"/>
        <def:Origin Type="Other"/>
      </ItemDef>
      <ItemDef OID="IT.SE.ELEMENT" Name="ELEMENT" DataType="text" Length="27" SASFieldName="ELEMENT">
        <Description>
          <TranslatedText xml:lang="en">Description of Element</TranslatedText>
        </Description>
        <CodeListRef CodeListOID="CL.ELEMENT"/>
        <def:Origin Type="Other"/>
      </ItemDef>
      <ItemDef OID="IT.SE.SESTDTC" Name="SESTDTC" DataType="date" SASFieldName="SESTDTC">
        <Description>
          <TranslatedText xml:lang="en">Start Date/Time of Element</TranslatedText>
        </Description>
        <def:Origin Type="Collected"/>
      </ItemDef>
      <ItemDef OID="IT.SE.SEENDTC" Name="SEENDTC" DataType="date" SASFieldName="SEENDTC">
        <Description>
          <TranslatedText xml:lang="en">End Date/Time of Element</TranslatedText>
        </Description>
        <def:Origin Type="Collected"/>
      </ItemDef>
      <ItemDef OID="IT.SJ.STUDYID" Name="STUDYID" DataType="text" Length="10" SASFieldName="STUDYID">
        <Description>
          <TranslatedText xml:lang="en">Study Identifier</TranslatedText>
        </Description>
        <def:Origin Type="Other"/>
      </ItemDef>
      <ItemDef OID="IT.SJ.DOMAIN" Name="DOMAIN" DataType="text" Length="2" SASFieldName="DOMAIN">
        <Description>
          <TranslatedText xml:lang="en">Domain Abbreviation</TranslatedText>
        </Description>
        <def:Origin Type="Other"/>
      </ItemDef>
      <ItemDef OID="IT.SJ.USUBJID" Name="USUBJID" DataType="text" Length="15" SASFieldName="USUBJID">
        <Description>
          <TranslatedText xml:lang="en">Unique Subject Identifier</TranslatedText>
        </Description>
        <def:Origin Type="Other"/>
      </ItemDef>
      <ItemDef OID="IT.SJ.SJSEQ" Name="SJSEQ" DataType="integer" Length="1" SASFieldName="SJSEQ">
        <Description>
          <TranslatedText xml:lang="en">Sequence Number</TranslatedText>
        </Description>
        <def:Origin Type="Other"/>
      </ItemDef>
      <ItemDef OID="IT.SJ.RSTGCD" Name="RSTGCD" DataType="text" Length="3" SASFieldName="RSTGCD">
        <Description>
          <TranslatedText xml:lang="en">Repro Stage Code</TranslatedText>
        </Description>
        <def:Origin Type="Other"/>
      </ItemDef>
      <ItemDef OID="IT.SJ.RSTAGE" Name="RSTAGE" DataType="text" Length="9" SASFieldName="RSTAGE">
        <Description>
          <TranslatedText xml:lang="en">Description of Repro Stage</TranslatedText>
        </Description>
        <def:Origin Type="Other"/>
      </ItemDef>
      <ItemDef OID="IT.SJ.SJSTDTC" Name="SJSTDTC" DataType="date" SASFieldName="SJSTDTC">
        <Description>
          <TranslatedText xml:lang="en">Start Date/Time of Repro Stage</TranslatedText>
        </Description>
        <def:Origin Type="Collected"/>
      </ItemDef>
      <ItemDef OID="IT.SJ.SJENDTC" Name="SJENDTC" DataType="date" SASFieldName="SJENDTC">
        <Description>
          <TranslatedText xml:lang="en">End Date/Time of Repro Stage</TranslatedText>
        </Description>
        <def:Origin Type="Collected"/>
      </ItemDef>
      <ItemDef OID="IT.SJ.RPHASE" Name="RPHASE" DataType="text" Length="9" SASFieldName="RPHASE">
        <Description>
          <TranslatedText xml:lang="en">Repro Phase</TranslatedText>
        </Description>
        <CodeListRef CodeListOID="CL.NCDPHASE"/>
        <def:Origin Type="Other"/>
      </ItemDef>
      <ItemDef OID="IT.EX.STUDYID" Name="STUDYID" DataType="text" Length="10" SASFieldName="STUDYID">
        <Description>
          <TranslatedText xml:lang="en">Study Identifier</TranslatedText>
        </Description>
        <def:Origin Type="Other"/>
      </ItemDef>
      <ItemDef OID="IT.EX.DOMAIN" Name="DOMAIN" DataType="text" Length="2" SASFieldName="DOMAIN">
        <Description>
          <TranslatedText xml:lang="en">Domain Abbreviation</TranslatedText>
        </Description>
        <def:Origin Type="Other"/>
      </ItemDef>
      <ItemDef OID="IT.EX.USUBJID" Name="USUBJID" DataType="text" Length="15" SASFieldName="USUBJID">
        <Description>
          <TranslatedText xml:lang="en">Unique Subject Identifier</TranslatedText>
        </Description>
        <def:Origin Type="Other"/>
      </ItemDef>
      <ItemDef OID="IT.EX.EXSEQ" Name="EXSEQ" DataType="integer" Length="2" SASFieldName="EXSEQ">
        <Description>
          <TranslatedText xml:lang="en">Sequence Number</TranslatedText>
        </Description>
        <def:Origin Type="Other"/>
      </ItemDef>
      <ItemDef OID="IT.EX.EXTRT" Name="EXTRT" DataType="text" Length="14" SASFieldName="EXTRT">
        <Description>
          <TranslatedText xml:lang="en">Name of Actual Treatment</TranslatedText>
        </Description>
        <def:Origin Type="Other"/>
      </ItemDef>
      <ItemDef OID="IT.EX.EXDOSE" Name="EXDOSE" DataType="float" Length="5" SASFieldName="EXDOSE" SignificantDigits="2"
        def:DisplayFormat="5.2">
        <Description>
          <TranslatedText xml:lang="en">Dose per Administration</TranslatedText>
        </Description>
        <def:Origin Type="Collected"/>
      </ItemDef>
      <ItemDef OID="IT.EX.EXDOSU" Name="EXDOSU" DataType="text" Length="2" SASFieldName="EXDOSU">
        <Description>
          <TranslatedText xml:lang="en">Dose Units</TranslatedText>
        </Description>
        <CodeListRef CodeListOID="CL.EX.EXDOSU.UNIT"/>
        <def:Origin Type="Collected"/>
      </ItemDef>
      <ItemDef OID="IT.EX.EXDOSFRM" Name="EXDOSFRM" DataType="text" Length="8" SASFieldName="EXDOSFRM">
        <Description>
          <TranslatedText xml:lang="en">Dose Form</TranslatedText>
        </Description>
        <CodeListRef CodeListOID="CL.FRM"/>
        <def:Origin Type="Other"/>
      </ItemDef>
      <ItemDef OID="IT.EX.EXDOSFRQ" Name="EXDOSFRQ" DataType="text" Length="2" SASFieldName="EXDOSFRQ">
        <Description>
          <TranslatedText xml:lang="en">Dosing Frequency Per Interval</TranslatedText>
        </Description>
        <CodeListRef CodeListOID="CL.FREQ"/>
        <def:Origin Type="Other"/>
      </ItemDef>
      <ItemDef OID="IT.EX.EXROUTE" Name="EXROUTE" DataType="text" Length="11" SASFieldName="EXROUTE">
        <Description>
          <TranslatedText xml:lang="en">Route of Administration</TranslatedText>
        </Description>
        <CodeListRef CodeListOID="CL.ROUTE"/>
        <def:Origin Type="Other"/>
      </ItemDef>
      <ItemDef OID="IT.EX.EXLOT" Name="EXLOT" DataType="text" Length="14" SASFieldName="EXLOT">
        <Description>
          <TranslatedText xml:lang="en">Lot Number</TranslatedText>
        </Description>
        <def:Origin Type="Collected"/>
      </ItemDef>
      <ItemDef OID="IT.EX.EXTRTV" Name="EXTRTV" DataType="text" Length="15" SASFieldName="EXTRTV">
        <Description>
          <TranslatedText xml:lang="en">Treatment Vehicle</TranslatedText>
        </Description>
        <def:Origin Type="Other"/>
      </ItemDef>
      <ItemDef OID="IT.EX.EXVAMT" Name="EXVAMT" DataType="float" Length="4" SASFieldName="EXVAMT" SignificantDigits="2"
        def:DisplayFormat="4.2">
        <Description>
          <TranslatedText xml:lang="en">Amount Administered</TranslatedText>
        </Description>
        <def:Origin Type="Collected"/>
      </ItemDef>
      <ItemDef OID="IT.EX.EXVAMTU" Name="EXVAMTU" DataType="text" Length="2" SASFieldName="EXVAMTU">
        <Description>
          <TranslatedText xml:lang="en">Amount Administered Units</TranslatedText>
        </Description>
        <CodeListRef CodeListOID="CL.EX.EXVAMTU.UNIT"/>
        <def:Origin Type="Collected"/>
      </ItemDef>
      <ItemDef OID="IT.EX.RPHASE" Name="RPHASE" DataType="text" Length="9" SASFieldName="RPHASE">
        <Description>
          <TranslatedText xml:lang="en">Repro Phase</TranslatedText>
        </Description>
        <CodeListRef CodeListOID="CL.NCDPHASE"/>
        <def:Origin Type="Other"/>
      </ItemDef>
      <ItemDef OID="IT.EX.RPPLSTDY" Name="RPPLSTDY" DataType="integer" Length="2" SASFieldName="RPPLSTDY">
        <Description>
          <TranslatedText xml:lang="en">Planned Repro Phase Day of Obs Start</TranslatedText>
        </Description>
        <def:Origin Type="Derived"/>
      </ItemDef>
      <ItemDef OID="IT.EX.EXSTDTC" Name="EXSTDTC" DataType="datetime" SASFieldName="EXSTDTC">
        <Description>
          <TranslatedText xml:lang="en">Start Date/Time of Treatment</TranslatedText>
        </Description>
        <def:Origin Type="Collected"/>
      </ItemDef>
      <ItemDef OID="IT.EX.EXRPSTDY" Name="EXRPSTDY" DataType="integer" Length="2" SASFieldName="EXRPSTDY">
        <Description>
          <TranslatedText xml:lang="en">Actual Repro Phase Day of Obs Start</TranslatedText>
        </Description>
        <def:Origin Type="Derived"/>
      </ItemDef>
      <ItemDef OID="IT.DS.STUDYID" Name="STUDYID" DataType="text" Length="10" SASFieldName="STUDYID">
        <Description>
          <TranslatedText xml:lang="en">Study Identifier</TranslatedText>
        </Description>
        <def:Origin Type="Other"/>
      </ItemDef>
      <ItemDef OID="IT.DS.DOMAIN" Name="DOMAIN" DataType="text" Length="2" SASFieldName="DOMAIN">
        <Description>
          <TranslatedText xml:lang="en">Domain Abbreviation</TranslatedText>
        </Description>
        <def:Origin Type="Other"/>
      </ItemDef>
      <ItemDef OID="IT.DS.USUBJID" Name="USUBJID" DataType="text" Length="15" SASFieldName="USUBJID">
        <Description>
          <TranslatedText xml:lang="en">Unique Subject Identifier</TranslatedText>
        </Description>
        <def:Origin Type="Other"/>
      </ItemDef>
      <ItemDef OID="IT.DS.DSSEQ" Name="DSSEQ" DataType="integer" Length="1" SASFieldName="DSSEQ">
        <Description>
          <TranslatedText xml:lang="en">Sequence Number</TranslatedText>
        </Description>
        <def:Origin Type="Other"/>
      </ItemDef>
      <ItemDef OID="IT.DS.DSTERM" Name="DSTERM" DataType="text" Length="22" SASFieldName="DSTERM">
        <Description>
          <TranslatedText xml:lang="en">Reported Term for the Disposition Event</TranslatedText>
        </Description>
        <def:Origin Type="Collected"/>
      </ItemDef>
      <ItemDef OID="IT.DS.DSDECOD" Name="DSDECOD" DataType="text" Length="18" SASFieldName="DSDECOD"
        def:CommentOID="COM.CMTDSDECOD">
        <Description>
          <TranslatedText xml:lang="en">Standardized Disposition Term</TranslatedText>
        </Description>
        <CodeListRef CodeListOID="CL.DSDECOD"/>
        <def:Origin Type="Other"/>
      </ItemDef>
      <ItemDef OID="IT.DS.DSUSCHFL" Name="DSUSCHFL" DataType="text" Length="1" SASFieldName="DSUSCHFL">
        <Description>
          <TranslatedText xml:lang="en">Unscheduled Flag</TranslatedText>
        </Description>
        <CodeListRef CodeListOID="CL.DS.DSUSCHFL.NY"/>
        <def:Origin Type="Other"/>
      </ItemDef>
      <ItemDef OID="IT.DS.RPHASE" Name="RPHASE" DataType="text" Length="9" SASFieldName="RPHASE">
        <Description>
          <TranslatedText xml:lang="en">Repro Phase</TranslatedText>
        </Description>
        <CodeListRef CodeListOID="CL.NCDPHASE"/>
        <def:Origin Type="Other"/>
      </ItemDef>
      <ItemDef OID="IT.DS.RPPLSTDY" Name="RPPLSTDY" DataType="integer" Length="2" SASFieldName="RPPLSTDY">
        <Description>
          <TranslatedText xml:lang="en">Planned Repro Phase Day of Obs Start</TranslatedText>
        </Description>
        <def:Origin Type="Derived"/>
      </ItemDef>
      <ItemDef OID="IT.DS.DSSTDTC" Name="DSSTDTC" DataType="datetime" SASFieldName="DSSTDTC">
        <Description>
          <TranslatedText xml:lang="en">Date/Time of Disposition</TranslatedText>
        </Description>
        <def:Origin Type="Collected"/>
      </ItemDef>
      <ItemDef OID="IT.DS.DSRPSTDY" Name="DSRPSTDY" DataType="integer" Length="2" SASFieldName="DSRPSTDY">
        <Description>
          <TranslatedText xml:lang="en">Actual Repro Phase Day of Obs Start</TranslatedText>
        </Description>
        <def:Origin Type="Derived"/>
      </ItemDef>
      <ItemDef OID="IT.BW.STUDYID" Name="STUDYID" DataType="text" Length="10" SASFieldName="STUDYID">
        <Description>
          <TranslatedText xml:lang="en">Study Identifier</TranslatedText>
        </Description>
        <def:Origin Type="Other"/>
      </ItemDef>
      <ItemDef OID="IT.BW.DOMAIN" Name="DOMAIN" DataType="text" Length="2" SASFieldName="DOMAIN">
        <Description>
          <TranslatedText xml:lang="en">Domain Abbreviation</TranslatedText>
        </Description>
        <def:Origin Type="Other"/>
      </ItemDef>
      <ItemDef OID="IT.BW.USUBJID" Name="USUBJID" DataType="text" Length="15" SASFieldName="USUBJID">
        <Description>
          <TranslatedText xml:lang="en">Unique Subject Identifier</TranslatedText>
        </Description>
        <def:Origin Type="Other"/>
      </ItemDef>
      <ItemDef OID="IT.BW.BWSEQ" Name="BWSEQ" DataType="integer" Length="2" SASFieldName="BWSEQ">
        <Description>
          <TranslatedText xml:lang="en">Sequence Number</TranslatedText>
        </Description>
        <def:Origin Type="Other"/>
      </ItemDef>
      <ItemDef OID="IT.BW.BWTESTCD" Name="BWTESTCD" DataType="text" Length="6" SASFieldName="BWTESTCD"
        def:CommentOID="COM.CMTTEST">
        <Description>
          <TranslatedText xml:lang="en">Test Short Name</TranslatedText>
        </Description>
        <CodeListRef CodeListOID="CL.BWTESTCD"/>
        <def:Origin Type="Other"/>
      </ItemDef>
      <ItemDef OID="IT.BW.BWTEST" Name="BWTEST" DataType="text" Length="20" SASFieldName="BWTEST">
        <Description>
          <TranslatedText xml:lang="en">Test Name</TranslatedText>
        </Description>
        <CodeListRef CodeListOID="CL.BWTEST"/>
        <def:Origin Type="Other"/>
      </ItemDef>
      <ItemDef OID="IT.BW.BWORRES" Name="BWORRES" DataType="text" Length="3" SASFieldName="BWORRES">
        <Description>
          <TranslatedText xml:lang="en">Result or Findings as Collected</TranslatedText>
        </Description>
        <def:Origin Type="Collected"/>
        <def:ValueListRef ValueListOID="VL.BW.BWORRES"/>
      </ItemDef>
      <ItemDef OID="IT.BW.BWORRESU" Name="BWORRESU" DataType="text" Length="1" SASFieldName="BWORRESU">
        <Description>
          <TranslatedText xml:lang="en">Unit of the Original Result</TranslatedText>
        </Description>
        <CodeListRef CodeListOID="CL.BW.UNIT"/>
        <def:Origin Type="Collected"/>
      </ItemDef>
      <ItemDef OID="IT.BW.BWSTRESC" Name="BWSTRESC" DataType="text" Length="3" SASFieldName="BWSTRESC">
        <Description>
          <TranslatedText xml:lang="en">Standardized Result in Character Format</TranslatedText>
        </Description>
        <def:Origin Type="Derived"/>
      </ItemDef>
      <ItemDef OID="IT.BW.BWSTRESN" Name="BWSTRESN" DataType="integer" Length="3" SASFieldName="BWSTRESN">
        <Description>
          <TranslatedText xml:lang="en">Standardized Result in Numeric Format</TranslatedText>
        </Description>
        <def:Origin Type="Derived"/>
      </ItemDef>
      <ItemDef OID="IT.BW.BWSTRESU" Name="BWSTRESU" DataType="text" Length="1" SASFieldName="BWSTRESU">
        <Description>
          <TranslatedText xml:lang="en">Unit of the Standardized Result</TranslatedText>
        </Description>
        <CodeListRef CodeListOID="CL.BW.UNIT"/>
        <def:Origin Type="Derived"/>
      </ItemDef>
      <ItemDef OID="IT.BW.RPHASE" Name="RPHASE" DataType="text" Length="9" SASFieldName="RPHASE">
        <Description>
          <TranslatedText xml:lang="en">Repro Phase</TranslatedText>
        </Description>
        <CodeListRef CodeListOID="CL.NCDPHASE"/>
        <def:Origin Type="Other"/>
      </ItemDef>
      <ItemDef OID="IT.BW.RPPLDY" Name="RPPLDY" DataType="integer" Length="2" SASFieldName="RPPLDY">
        <Description>
          <TranslatedText xml:lang="en">Planned Repro Phase Day of Observation</TranslatedText>
        </Description>
        <def:Origin Type="Derived"/>
      </ItemDef>
      <ItemDef OID="IT.BW.BWDTC" Name="BWDTC" DataType="datetime" SASFieldName="BWDTC">
        <Description>
          <TranslatedText xml:lang="en">Date/Time Animal Weighed</TranslatedText>
        </Description>
        <def:Origin Type="Collected"/>
      </ItemDef>
      <ItemDef OID="IT.BW.BWRPDY" Name="BWRPDY" DataType="integer" Length="2" SASFieldName="BWRPDY">
        <Description>
          <TranslatedText xml:lang="en">Actual Repro Phase Day of Observation</TranslatedText>
        </Description>
        <def:Origin Type="Derived"/>
      </ItemDef>
      <ItemDef OID="IT.CL.STUDYID" Name="STUDYID" DataType="text" Length="10" SASFieldName="STUDYID">
        <Description>
          <TranslatedText xml:lang="en">Study Identifier</TranslatedText>
        </Description>
        <def:Origin Type="Other"/>
      </ItemDef>
      <ItemDef OID="IT.CL.DOMAIN" Name="DOMAIN" DataType="text" Length="2" SASFieldName="DOMAIN">
        <Description>
          <TranslatedText xml:lang="en">Domain Abbreviation</TranslatedText>
        </Description>
        <def:Origin Type="Other"/>
      </ItemDef>
      <ItemDef OID="IT.CL.USUBJID" Name="USUBJID" DataType="text" Length="15" SASFieldName="USUBJID">
        <Description>
          <TranslatedText xml:lang="en">Unique Subject Identifier</TranslatedText>
        </Description>
        <def:Origin Type="Other"/>
      </ItemDef>
      <ItemDef OID="IT.CL.CLSEQ" Name="CLSEQ" DataType="integer" Length="3" SASFieldName="CLSEQ">
        <Description>
          <TranslatedText xml:lang="en">Sequence Number</TranslatedText>
        </Description>
        <def:Origin Type="Other"/>
      </ItemDef>
      <ItemDef OID="IT.CL.CLTESTCD" Name="CLTESTCD" DataType="text" Length="2" SASFieldName="CLTESTCD"
        def:CommentOID="COM.CMTTEST">
        <Description>
          <TranslatedText xml:lang="en">Test Short Name</TranslatedText>
        </Description>
        <def:Origin Type="Other"/>
      </ItemDef>
      <ItemDef OID="IT.CL.CLTEST" Name="CLTEST" DataType="text" Length="14" SASFieldName="CLTEST">
        <Description>
          <TranslatedText xml:lang="en">Test Name</TranslatedText>
        </Description>
        <def:Origin Type="Other"/>
      </ItemDef>
      <ItemDef OID="IT.CL.CLCAT" Name="CLCAT" DataType="text" Length="14" SASFieldName="CLCAT"
        def:CommentOID="COM.CMTCLCAT">
        <Description>
          <TranslatedText xml:lang="en">Category for Clinical Observations</TranslatedText>
        </Description>
        <CodeListRef CodeListOID="CL.CLCAT"/>
        <def:Origin Type="Other"/>
      </ItemDef>
      <ItemDef OID="IT.CL.CLSCAT" Name="CLSCAT" DataType="text" Length="23" SASFieldName="CLSCAT"
        def:CommentOID="COM.CMTNOTPOP">
        <Description>
          <TranslatedText xml:lang="en">Subcategory for Clinical Observations</TranslatedText>
        </Description>
        <def:Origin Type="Other"/>
      </ItemDef>
      <ItemDef OID="IT.CL.CLORRES" Name="CLORRES" DataType="text" Length="58" SASFieldName="CLORRES">
        <Description>
          <TranslatedText xml:lang="en">Result or Findings as Collected</TranslatedText>
        </Description>
        <def:Origin Type="Derived"/>
      </ItemDef>
      <ItemDef OID="IT.CL.CLSTRESC" Name="CLSTRESC" DataType="text" Length="27" SASFieldName="CLSTRESC">
        <Description>
          <TranslatedText xml:lang="en">Standardized Result in Character Format</TranslatedText>
        </Description>
        <def:Origin Type="Collected"/>
      </ItemDef>
      <ItemDef OID="IT.CL.CLLOC" Name="CLLOC" DataType="text" Length="25" SASFieldName="CLLOC">
        <Description>
          <TranslatedText xml:lang="en">Location of a Finding</TranslatedText>
        </Description>
        <def:Origin Type="Collected"/>
      </ItemDef>
      <ItemDef OID="IT.CL.RPHASE" Name="RPHASE" DataType="text" Length="9" SASFieldName="RPHASE">
        <Description>
          <TranslatedText xml:lang="en">Repro Phase</TranslatedText>
        </Description>
        <CodeListRef CodeListOID="CL.NCDPHASE"/>
        <def:Origin Type="Other"/>
      </ItemDef>
      <ItemDef OID="IT.CL.RPPLDY" Name="RPPLDY" DataType="integer" Length="2" SASFieldName="RPPLDY">
        <Description>
          <TranslatedText xml:lang="en">Planned Repro Phase Day of Observation</TranslatedText>
        </Description>
        <def:Origin Type="Derived"/>
      </ItemDef>
      <ItemDef OID="IT.CL.CLDTC" Name="CLDTC" DataType="datetime" SASFieldName="CLDTC">
        <Description>
          <TranslatedText xml:lang="en">Date/Time of Observation</TranslatedText>
        </Description>
        <def:Origin Type="Collected"/>
      </ItemDef>
      <ItemDef OID="IT.CL.CLRPDY" Name="CLRPDY" DataType="integer" Length="2" SASFieldName="CLRPDY"
        def:CommentOID="COM.NODATA">
        <Description>
          <TranslatedText xml:lang="en">Actual Repro Phase Day of Observation</TranslatedText>
        </Description>
        <def:Origin Type="Derived"/>
      </ItemDef>
      <ItemDef OID="IT.CL.CLTPT" Name="CLTPT" DataType="text" Length="4" SASFieldName="CLTPT">
        <Description>
          <TranslatedText xml:lang="en">Planned Time Point Name</TranslatedText>
        </Description>
        <def:Origin Type="Collected"/>
      </ItemDef>
      <ItemDef OID="IT.CL.CLTPTNUM" Name="CLTPTNUM" DataType="integer" Length="1" SASFieldName="CLTPTNUM">
        <Description>
          <TranslatedText xml:lang="en">Planned Time Point Number</TranslatedText>
        </Description>
        <def:Origin Type="Other"/>
      </ItemDef>
      <ItemDef OID="IT.CL.CLELTM" Name="CLELTM" DataType="durationDatetime" SASFieldName="CLELTM"
        def:CommentOID="COM.CMTNOTPOP">
        <Description>
          <TranslatedText xml:lang="en">Planned Elapsed Time from Time Point Ref</TranslatedText>
        </Description>
        <def:Origin Type="Other"/>
      </ItemDef>
      <ItemDef OID="IT.CL.CLTPTREF" Name="CLTPTREF" DataType="text" Length="11" SASFieldName="CLTPTREF"
        def:CommentOID="COM.CMTNOTPOP">
        <Description>
          <TranslatedText xml:lang="en">Time Point Reference</TranslatedText>
        </Description>
        <def:Origin Type="Other"/>
      </ItemDef>
      <ItemDef OID="IT.CL.CLRFTDTC" Name="CLRFTDTC" DataType="datetime" SASFieldName="CLRFTDTC"
        def:CommentOID="COM.CMTNOTPOP">
        <Description>
          <TranslatedText xml:lang="en">Date/Time of Reference Time Point</TranslatedText>
        </Description>
        <def:Origin Type="Other"/>
      </ItemDef>
      <ItemDef OID="IT.DD.STUDYID" Name="STUDYID" DataType="text" Length="10" SASFieldName="STUDYID">
        <Description>
          <TranslatedText xml:lang="en">Study Identifier</TranslatedText>
        </Description>
        <def:Origin Type="Other"/>
      </ItemDef>
      <ItemDef OID="IT.DD.DOMAIN" Name="DOMAIN" DataType="text" Length="2" SASFieldName="DOMAIN">
        <Description>
          <TranslatedText xml:lang="en">Domain Abbreviation</TranslatedText>
        </Description>
        <def:Origin Type="Other"/>
      </ItemDef>
      <ItemDef OID="IT.DD.USUBJID" Name="USUBJID" DataType="text" Length="15" SASFieldName="USUBJID">
        <Description>
          <TranslatedText xml:lang="en">Unique Subject Identifier</TranslatedText>
        </Description>
        <def:Origin Type="Other"/>
      </ItemDef>
      <ItemDef OID="IT.DD.DDSEQ" Name="DDSEQ" DataType="integer" Length="1" SASFieldName="DDSEQ">
        <Description>
          <TranslatedText xml:lang="en">Sequence Number</TranslatedText>
        </Description>
        <def:Origin Type="Other"/>
      </ItemDef>
      <ItemDef OID="IT.DD.DDTESTCD" Name="DDTESTCD" DataType="text" Length="6" SASFieldName="DDTESTCD"
        def:CommentOID="COM.CMTTEST">
        <Description>
          <TranslatedText xml:lang="en">Death Diagnosis Short Name</TranslatedText>
        </Description>
        <CodeListRef CodeListOID="CL.DDTESTCD"/>
        <def:Origin Type="Other"/>
      </ItemDef>
      <ItemDef OID="IT.DD.DDTEST" Name="DDTEST" DataType="text" Length="15" SASFieldName="DDTEST">
        <Description>
          <TranslatedText xml:lang="en">Death Diagnosis Name</TranslatedText>
        </Description>
        <CodeListRef CodeListOID="CL.DDTEST"/>
        <def:Origin Type="Other"/>
      </ItemDef>
      <ItemDef OID="IT.DD.DDORRES" Name="DDORRES" DataType="text" Length="12" SASFieldName="DDORRES">
        <Description>
          <TranslatedText xml:lang="en">Result or Findings as Collected</TranslatedText>
        </Description>
        <def:Origin Type="Collected"/>
      </ItemDef>
      <ItemDef OID="IT.DD.DDSTRESC" Name="DDSTRESC" DataType="text" Length="12" SASFieldName="DDSTRESC">
        <Description>
          <TranslatedText xml:lang="en">Standardized Result in Character Format</TranslatedText>
        </Description>
        <def:Origin Type="Derived"/>
      </ItemDef>
      <ItemDef OID="IT.DD.RPHASE" Name="RPHASE" DataType="text" Length="9" SASFieldName="RPHASE">
        <Description>
          <TranslatedText xml:lang="en">Repro Phase</TranslatedText>
        </Description>
        <CodeListRef CodeListOID="CL.NCDPHASE"/>
        <def:Origin Type="Other"/>
      </ItemDef>
      <ItemDef OID="IT.DD.DDDTC" Name="DDDTC" DataType="datetime" SASFieldName="DDDTC">
        <Description>
          <TranslatedText xml:lang="en">Date/Time</TranslatedText>
        </Description>
        <def:Origin Type="Collected"/>
      </ItemDef>
      <ItemDef OID="IT.DD.DDRPDY" Name="DDRPDY" DataType="integer" Length="2" SASFieldName="DDRPDY">
        <Description>
          <TranslatedText xml:lang="en">Actual Repro Phase Day of Observation</TranslatedText>
        </Description>
        <def:Origin Type="Derived"/>
      </ItemDef>
      <ItemDef OID="IT.DP.STUDYID" Name="STUDYID" DataType="text" Length="10" SASFieldName="STUDYID">
        <Description>
          <TranslatedText xml:lang="en">Study Identifier</TranslatedText>
        </Description>
        <def:Origin Type="Other"/>
      </ItemDef>
      <ItemDef OID="IT.DP.DOMAIN" Name="DOMAIN" DataType="text" Length="2" SASFieldName="DOMAIN">
        <Description>
          <TranslatedText xml:lang="en">Domain Abbreviation</TranslatedText>
        </Description>
        <def:Origin Type="Other"/>
      </ItemDef>
      <ItemDef OID="IT.DP.USUBJID" Name="USUBJID" DataType="text" Length="15" SASFieldName="USUBJID">
        <Description>
          <TranslatedText xml:lang="en">Unique Subject Identifier</TranslatedText>
        </Description>
        <def:Origin Type="Other"/>
      </ItemDef>
      <ItemDef OID="IT.DP.DPSEQ" Name="DPSEQ" DataType="integer" Length="3" SASFieldName="DPSEQ">
        <Description>
          <TranslatedText xml:lang="en">Sequence Number</TranslatedText>
        </Description>
        <def:Origin Type="Other"/>
      </ItemDef>
      <ItemDef OID="IT.DP.DPTESTCD" Name="DPTESTCD" DataType="text" Length="9" SASFieldName="DPTESTCD"
        def:CommentOID="COM.CMTTEST">
        <Description>
          <TranslatedText xml:lang="en">Test Short Name</TranslatedText>
        </Description>
        <CodeListRef CodeListOID="CL.DPTESTCD"/>
        <def:Origin Type="Other"/>
      </ItemDef>
      <ItemDef OID="IT.DP.DPTEST" Name="DPTEST" DataType="text" Length="20" SASFieldName="DPTEST">
        <Description>
          <TranslatedText xml:lang="en">Developmental Milestone Test Name</TranslatedText>
        </Description>
        <CodeListRef CodeListOID="CL.DPTEST"/>
        <def:Origin Type="Other"/>
      </ItemDef>
      <ItemDef OID="IT.DP.DPORRES" Name="DPORRES" DataType="text" Length="1" SASFieldName="DPORRES">
        <Description>
          <TranslatedText xml:lang="en">Result or Findings as Collected</TranslatedText>
        </Description>
        <def:Origin Type="Collected"/>
        <def:ValueListRef ValueListOID="VL.DP.DPORRES"/>
      </ItemDef>
      <ItemDef OID="IT.DP.DPSTRESC" Name="DPSTRESC" DataType="text" Length="4" SASFieldName="DPSTRESC">
        <Description>
          <TranslatedText xml:lang="en">Standardized Results in Character Format</TranslatedText>
        </Description>
        <CodeListRef CodeListOID="CL.DPFINDRS"/>
        <def:Origin Type="Derived"/>
        <def:ValueListRef ValueListOID="VL.DP.DPSTRESC"/>
      </ItemDef>
      <ItemDef OID="IT.DP.DPSTAT" Name="DPSTAT" DataType="text" Length="8" SASFieldName="DPSTAT">
        <Description>
          <TranslatedText xml:lang="en">Completion Status</TranslatedText>
        </Description>
        <CodeListRef CodeListOID="CL.ND"/>
        <def:Origin Type="Collected"/>
      </ItemDef>
      <ItemDef OID="IT.DP.DPREASND" Name="DPREASND" DataType="text" Length="24" SASFieldName="DPREASND">
        <Description>
          <TranslatedText xml:lang="en">Reason Test Not Done</TranslatedText>
        </Description>
        <def:Origin Type="Collected"/>
      </ItemDef>
      <ItemDef OID="IT.DP.DPEXCLFL" Name="DPEXCLFL" DataType="text" Length="1" SASFieldName="DPEXCLFL">
        <Description>
          <TranslatedText xml:lang="en">Exclusion Flag</TranslatedText>
        </Description>
        <CodeListRef CodeListOID="CL.DP.DPEXCLFL.NY"/>
        <def:Origin Type="Collected"/>
      </ItemDef>
      <ItemDef OID="IT.DP.DPREASEX" Name="DPREASEX" DataType="text" Length="135" SASFieldName="DPREASEX">
        <Description>
          <TranslatedText xml:lang="en">Reason for Exclusion</TranslatedText>
        </Description>
        <def:Origin Type="Collected"/>
      </ItemDef>
      <ItemDef OID="IT.DP.RPHASE" Name="RPHASE" DataType="text" Length="9" SASFieldName="RPHASE">
        <Description>
          <TranslatedText xml:lang="en">Repro Phase</TranslatedText>
        </Description>
        <CodeListRef CodeListOID="CL.NCDPHASE"/>
        <def:Origin Type="Other"/>
      </ItemDef>
      <ItemDef OID="IT.DP.RPPLDY" Name="RPPLDY" DataType="integer" Length="2" SASFieldName="RPPLDY">
        <Description>
          <TranslatedText xml:lang="en">Planned Repro Phase Day of Observation</TranslatedText>
        </Description>
        <def:Origin Type="Derived"/>
      </ItemDef>
      <ItemDef OID="IT.DP.DPDTC" Name="DPDTC" DataType="date" SASFieldName="DPDTC">
        <Description>
          <TranslatedText xml:lang="en">Date/Time</TranslatedText>
        </Description>
        <def:Origin Type="Collected"/>
      </ItemDef>
      <ItemDef OID="IT.DP.DPRPDY" Name="DPRPDY" DataType="integer" Length="2" SASFieldName="DPRPDY">
        <Description>
          <TranslatedText xml:lang="en">Actual Repro Phase Day of Observation</TranslatedText>
        </Description>
        <def:Origin Type="Derived"/>
      </ItemDef>
      <ItemDef OID="IT.FW.STUDYID" Name="STUDYID" DataType="text" Length="10" SASFieldName="STUDYID">
        <Description>
          <TranslatedText xml:lang="en">Study Identifier</TranslatedText>
        </Description>
        <def:Origin Type="Other"/>
      </ItemDef>
      <ItemDef OID="IT.FW.DOMAIN" Name="DOMAIN" DataType="text" Length="2" SASFieldName="DOMAIN">
        <Description>
          <TranslatedText xml:lang="en">Domain Abbreviation</TranslatedText>
        </Description>
        <def:Origin Type="Other"/>
      </ItemDef>
      <ItemDef OID="IT.FW.USUBJID" Name="USUBJID" DataType="text" Length="15" SASFieldName="USUBJID"
        def:CommentOID="COM.NODATA">
        <Description>
          <TranslatedText xml:lang="en">Unique Subject Identifier</TranslatedText>
        </Description>
        <def:Origin Type="Other"/>
      </ItemDef>
      <ItemDef OID="IT.FW.POOLID" Name="POOLID" DataType="text" Length="13" SASFieldName="POOLID">
        <Description>
          <TranslatedText xml:lang="en">Pool Identifier</TranslatedText>
        </Description>
        <def:Origin Type="Other"/>
      </ItemDef>
      <ItemDef OID="IT.FW.FWSEQ" Name="FWSEQ" DataType="integer" Length="2" SASFieldName="FWSEQ">
        <Description>
          <TranslatedText xml:lang="en">Sequence Number</TranslatedText>
        </Description>
        <def:Origin Type="Other"/>
      </ItemDef>
      <ItemDef OID="IT.FW.FWTESTCD" Name="FWTESTCD" DataType="text" Length="2" SASFieldName="FWTESTCD"
        def:CommentOID="COM.CMTTEST">
        <Description>
          <TranslatedText xml:lang="en">Food/Water Consumption Short Name</TranslatedText>
        </Description>
        <CodeListRef CodeListOID="CL.FWTESTCD"/>
        <def:Origin Type="Other"/>
      </ItemDef>
      <ItemDef OID="IT.FW.FWTEST" Name="FWTEST" DataType="text" Length="16" SASFieldName="FWTEST">
        <Description>
          <TranslatedText xml:lang="en">Food/Water Consumption Name</TranslatedText>
        </Description>
        <CodeListRef CodeListOID="CL.FWTEST"/>
        <def:Origin Type="Other"/>
      </ItemDef>
      <ItemDef OID="IT.FW.FWORRES" Name="FWORRES" DataType="text" Length="3" SASFieldName="FWORRES">
        <Description>
          <TranslatedText xml:lang="en">Result or Findings as Collected</TranslatedText>
        </Description>
        <def:Origin Type="Collected"/>
        <def:ValueListRef ValueListOID="VL.FW.FWORRES"/>
      </ItemDef>
      <ItemDef OID="IT.FW.FWORRESU" Name="FWORRESU" DataType="text" Length="1" SASFieldName="FWORRESU">
        <Description>
          <TranslatedText xml:lang="en">Unit of the Original Result</TranslatedText>
        </Description>
        <CodeListRef CodeListOID="CL.FW.UNIT"/>
        <def:Origin Type="Collected"/>
      </ItemDef>
      <ItemDef OID="IT.FW.FWSTRESC" Name="FWSTRESC" DataType="text" Length="2" SASFieldName="FWSTRESC">
        <Description>
          <TranslatedText xml:lang="en">Standardized Result in Character Format</TranslatedText>
        </Description>
        <def:Origin Type="Derived"/>
        <def:ValueListRef ValueListOID="VL.FW.FWSTRESC"/>
      </ItemDef>
      <ItemDef OID="IT.FW.FWSTRESN" Name="FWSTRESN" DataType="integer" Length="2" SASFieldName="FWSTRESN">
        <Description>
          <TranslatedText xml:lang="en">Standardized Result in Numeric Format</TranslatedText>
        </Description>
        <def:Origin Type="Derived"/>
      </ItemDef>
      <ItemDef OID="IT.FW.FWSTRESU" Name="FWSTRESU" DataType="text" Length="12" SASFieldName="FWSTRESU"
        def:CommentOID="COM.CMTFWSTRESU">
        <Description>
          <TranslatedText xml:lang="en">Unit of the Standardized Result</TranslatedText>
        </Description>
        <CodeListRef CodeListOID="CL.FW.UNIT"/>
        <def:Origin Type="Other"/>
      </ItemDef>
      <ItemDef OID="IT.FW.RPHASE" Name="RPHASE" DataType="text" Length="9" SASFieldName="RPHASE">
        <Description>
          <TranslatedText xml:lang="en">Repro Phase</TranslatedText>
        </Description>
        <CodeListRef CodeListOID="CL.NCDPHASE"/>
        <def:Origin Type="Other"/>
      </ItemDef>
      <ItemDef OID="IT.FW.RPPLDY" Name="RPPLDY" DataType="integer" Length="2" SASFieldName="RPPLDY">
        <Description>
          <TranslatedText xml:lang="en">Planned Repro Phase Day of Observation</TranslatedText>
        </Description>
        <def:Origin Type="Derived"/>
      </ItemDef>
      <ItemDef OID="IT.FW.RPPLENDY" Name="RPPLENDY" DataType="integer" Length="2" SASFieldName="RPPLENDY">
        <Description>
          <TranslatedText xml:lang="en">Planned Repro Phase Day of Obs End</TranslatedText>
        </Description>
        <def:Origin Type="Derived"/>
      </ItemDef>
      <ItemDef OID="IT.FW.FWDTC" Name="FWDTC" DataType="datetime" SASFieldName="FWDTC">
        <Description>
          <TranslatedText xml:lang="en">Start Date/Time of Observation</TranslatedText>
        </Description>
        <def:Origin Type="Collected"/>
      </ItemDef>
      <ItemDef OID="IT.FW.FWENDTC" Name="FWENDTC" DataType="datetime" SASFieldName="FWENDTC">
        <Description>
          <TranslatedText xml:lang="en">End Date/Time of Observation</TranslatedText>
        </Description>
        <def:Origin Type="Collected"/>
      </ItemDef>
      <ItemDef OID="IT.FW.FWRPDY" Name="FWRPDY" DataType="integer" Length="2" SASFieldName="FWRPDY">
        <Description>
          <TranslatedText xml:lang="en">Actual Repro Phase Day of Observation</TranslatedText>
        </Description>
        <def:Origin Type="Derived"/>
      </ItemDef>
      <ItemDef OID="IT.FW.FWRPENDY" Name="FWRPENDY" DataType="integer" Length="2" SASFieldName="FWRPENDY">
        <Description>
          <TranslatedText xml:lang="en">Actual Repro Phase Day of Obs End</TranslatedText>
        </Description>
        <def:Origin Type="Derived"/>
      </ItemDef>
      <ItemDef OID="IT.LB.STUDYID" Name="STUDYID" DataType="text" Length="10" SASFieldName="STUDYID">
        <Description>
          <TranslatedText xml:lang="en">Study Identifier</TranslatedText>
        </Description>
        <def:Origin Type="Other"/>
      </ItemDef>
      <ItemDef OID="IT.LB.DOMAIN" Name="DOMAIN" DataType="text" Length="2" SASFieldName="DOMAIN">
        <Description>
          <TranslatedText xml:lang="en">Domain Abbreviation</TranslatedText>
        </Description>
        <def:Origin Type="Other"/>
      </ItemDef>
      <ItemDef OID="IT.LB.USUBJID" Name="USUBJID" DataType="text" Length="15" SASFieldName="USUBJID">
        <Description>
          <TranslatedText xml:lang="en">Unique Subject Identifier</TranslatedText>
        </Description>
        <def:Origin Type="Other"/>
      </ItemDef>
      <ItemDef OID="IT.LB.LBSEQ" Name="LBSEQ" DataType="integer" Length="2" SASFieldName="LBSEQ">
        <Description>
          <TranslatedText xml:lang="en">Sequence Number</TranslatedText>
        </Description>
        <def:Origin Type="Other"/>
      </ItemDef>
      <ItemDef OID="IT.LB.LBTESTCD" Name="LBTESTCD" DataType="text" Length="8" SASFieldName="LBTESTCD"
        def:CommentOID="COM.CMTTEST">
        <Description>
          <TranslatedText xml:lang="en">Lab Test or Examination Short Name</TranslatedText>
        </Description>
        <CodeListRef CodeListOID="CL.LBTESTCD"/>
        <def:Origin Type="Other"/>
      </ItemDef>
      <ItemDef OID="IT.LB.LBTEST" Name="LBTEST" DataType="text" Length="39" SASFieldName="LBTEST">
        <Description>
          <TranslatedText xml:lang="en">Lab Test or Examination Name</TranslatedText>
        </Description>
        <CodeListRef CodeListOID="CL.LBTEST"/>
        <def:Origin Type="Other"/>
      </ItemDef>
      <ItemDef OID="IT.LB.LBCAT" Name="LBCAT" DataType="text" Length="18" SASFieldName="LBCAT"
        def:CommentOID="COM.CMTLBCAT">
        <Description>
          <TranslatedText xml:lang="en">Category for Lab Test</TranslatedText>
        </Description>
        <def:Origin Type="Other"/>
      </ItemDef>
      <ItemDef OID="IT.LB.LBSCAT" Name="LBSCAT" DataType="text" Length="5" SASFieldName="LBSCAT">
        <Description>
          <TranslatedText xml:lang="en">Subcategory for Lab Test</TranslatedText>
        </Description>
        <def:Origin Type="Other"/>
      </ItemDef>
      <ItemDef OID="IT.LB.LBORRES" Name="LBORRES" DataType="text" Length="5" SASFieldName="LBORRES">
        <Description>
          <TranslatedText xml:lang="en">Result or Findings as Collected</TranslatedText>
        </Description>
        <def:Origin Type="Collected"/>
        <def:ValueListRef ValueListOID="VL.LB.LBORRES"/>
      </ItemDef>
      <ItemDef OID="IT.LB.LBORRESU" Name="LBORRESU" DataType="text" Length="7" SASFieldName="LBORRESU">
        <Description>
          <TranslatedText xml:lang="en">Unit of the Original Result</TranslatedText>
        </Description>
        <CodeListRef CodeListOID="CL.LB.UNIT"/>
        <def:Origin Type="Collected"/>
      </ItemDef>
      <ItemDef OID="IT.LB.LBSTRESC" Name="LBSTRESC" DataType="text" Length="12" SASFieldName="LBSTRESC">
        <Description>
          <TranslatedText xml:lang="en">Standardized Result in Character Format</TranslatedText>
        </Description>
        <def:Origin Type="Derived"/>
      </ItemDef>
      <ItemDef OID="IT.LB.LBSTRESN" Name="LBSTRESN" DataType="float" Length="8" SASFieldName="LBSTRESN"
        SignificantDigits="3" def:DisplayFormat="8.3">
        <Description>
          <TranslatedText xml:lang="en">Standardized Result in Numeric Format</TranslatedText>
        </Description>
        <def:Origin Type="Derived"/>
      </ItemDef>
      <ItemDef OID="IT.LB.LBSTRESU" Name="LBSTRESU" DataType="text" Length="7" SASFieldName="LBSTRESU">
        <Description>
          <TranslatedText xml:lang="en">Unit of the Standardized Result</TranslatedText>
        </Description>
        <CodeListRef CodeListOID="CL.LB.UNIT"/>
        <def:Origin Type="Derived"/>
      </ItemDef>
      <ItemDef OID="IT.LB.LBSTAT" Name="LBSTAT" DataType="text" Length="8" SASFieldName="LBSTAT">
        <Description>
          <TranslatedText xml:lang="en">Completion Status</TranslatedText>
        </Description>
        <CodeListRef CodeListOID="CL.ND"/>
        <def:Origin Type="Collected"/>
      </ItemDef>
      <ItemDef OID="IT.LB.LBREASND" Name="LBREASND" DataType="text" Length="23" SASFieldName="LBREASND">
        <Description>
          <TranslatedText xml:lang="en">Reason Not Done</TranslatedText>
        </Description>
        <def:Origin Type="Collected"/>
      </ItemDef>
      <ItemDef OID="IT.LB.LBSPEC" Name="LBSPEC" DataType="text" Length="11" SASFieldName="LBSPEC"
        def:CommentOID="COM.CMTLBSPEC">
        <Description>
          <TranslatedText xml:lang="en">Specimen Material Type</TranslatedText>
        </Description>
        <CodeListRef CodeListOID="CL.LB.SPEC"/>
        <def:Origin Type="Other"/>
      </ItemDef>
      <ItemDef OID="IT.LB.LBMETHOD" Name="LBMETHOD" DataType="text" Length="29" SASFieldName="LBMETHOD">
        <Description>
          <TranslatedText xml:lang="en">Method of Test or Examination</TranslatedText>
        </Description>
        <def:Origin Type="Other"/>
      </ItemDef>
      <ItemDef OID="IT.LB.LBBLFL" Name="LBBLFL" DataType="text" Length="1" SASFieldName="LBBLFL"
        def:CommentOID="COM.NODATA">
        <Description>
          <TranslatedText xml:lang="en">Baseline Flag</TranslatedText>
        </Description>
        <def:Origin Type="Derived"/>
      </ItemDef>
      <ItemDef OID="IT.LB.LBDRVFL" Name="LBDRVFL" DataType="text" Length="1" SASFieldName="LBDRVFL">
        <Description>
          <TranslatedText xml:lang="en">Derived Flag</TranslatedText>
        </Description>
        <CodeListRef CodeListOID="CL.LB.LBDRVFL.NY"/>
        <def:Origin Type="Other"/>
      </ItemDef>
      <ItemDef OID="IT.LB.LBUSCHFL" Name="LBUSCHFL" DataType="text" Length="1" SASFieldName="LBUSCHFL"
        def:CommentOID="COM.NODATA">
        <Description>
          <TranslatedText xml:lang="en">Unscheduled Flag</TranslatedText>
        </Description>
        <def:Origin Type="Other"/>
      </ItemDef>
      <ItemDef OID="IT.LB.RPHASE" Name="RPHASE" DataType="text" Length="9" SASFieldName="RPHASE">
        <Description>
          <TranslatedText xml:lang="en">Repro Phase</TranslatedText>
        </Description>
        <CodeListRef CodeListOID="CL.NCDPHASE"/>
        <def:Origin Type="Other"/>
      </ItemDef>
      <ItemDef OID="IT.LB.RPPLDY" Name="RPPLDY" DataType="integer" Length="2" SASFieldName="RPPLDY">
        <Description>
          <TranslatedText xml:lang="en">Planned Repro Phase Day of Observation</TranslatedText>
        </Description>
        <def:Origin Type="Derived"/>
      </ItemDef>
      <ItemDef OID="IT.LB.LBDTC" Name="LBDTC" DataType="datetime" SASFieldName="LBDTC">
        <Description>
          <TranslatedText xml:lang="en">Date/Time of Specimen Collection</TranslatedText>
        </Description>
        <def:Origin Type="Collected"/>
      </ItemDef>
      <ItemDef OID="IT.LB.LBRPDY" Name="LBRPDY" DataType="integer" Length="2" SASFieldName="LBRPDY">
        <Description>
          <TranslatedText xml:lang="en">Actual Repro Phase Day of Observation</TranslatedText>
        </Description>
        <def:Origin Type="Derived"/>
      </ItemDef>
      <ItemDef OID="IT.OM.STUDYID" Name="STUDYID" DataType="text" Length="10" SASFieldName="STUDYID">
        <Description>
          <TranslatedText xml:lang="en">Study Identifier</TranslatedText>
        </Description>
        <def:Origin Type="Other"/>
      </ItemDef>
      <ItemDef OID="IT.OM.DOMAIN" Name="DOMAIN" DataType="text" Length="2" SASFieldName="DOMAIN">
        <Description>
          <TranslatedText xml:lang="en">Domain Abbreviation</TranslatedText>
        </Description>
        <def:Origin Type="Other"/>
      </ItemDef>
      <ItemDef OID="IT.OM.USUBJID" Name="USUBJID" DataType="text" Length="15" SASFieldName="USUBJID">
        <Description>
          <TranslatedText xml:lang="en">Unique Subject Identifier</TranslatedText>
        </Description>
        <def:Origin Type="Other"/>
      </ItemDef>
      <ItemDef OID="IT.OM.OMSEQ" Name="OMSEQ" DataType="integer" Length="1" SASFieldName="OMSEQ">
        <Description>
          <TranslatedText xml:lang="en">Sequence Number</TranslatedText>
        </Description>
        <def:Origin Type="Other"/>
      </ItemDef>
      <ItemDef OID="IT.OM.OMTESTCD" Name="OMTESTCD" DataType="text" Length="6" SASFieldName="OMTESTCD"
        def:CommentOID="COM.CMTTEST">
        <Description>
          <TranslatedText xml:lang="en">Test Short Name</TranslatedText>
        </Description>
        <CodeListRef CodeListOID="CL.OMTESTCD"/>
        <def:Origin Type="Other"/>
      </ItemDef>
      <ItemDef OID="IT.OM.OMTEST" Name="OMTEST" DataType="text" Length="26" SASFieldName="OMTEST">
        <Description>
          <TranslatedText xml:lang="en">Test Name</TranslatedText>
        </Description>
        <CodeListRef CodeListOID="CL.OMTEST"/>
        <def:Origin Type="Other"/>
      </ItemDef>
      <ItemDef OID="IT.OM.OMORRES" Name="OMORRES" DataType="text" Length="7" SASFieldName="OMORRES">
        <Description>
          <TranslatedText xml:lang="en">Result or Findings as Collected</TranslatedText>
        </Description>
        <def:Origin Type="Other"/>
        <def:ValueListRef ValueListOID="VL.OM.OMORRES"/>
      </ItemDef>
      <ItemDef OID="IT.OM.OMORRESU" Name="OMORRESU" DataType="text" Length="2" SASFieldName="OMORRESU">
        <Description>
          <TranslatedText xml:lang="en">Unit of the Original Result</TranslatedText>
        </Description>
        <CodeListRef CodeListOID="CL.OM.UNIT"/>
        <def:Origin Type="Collected"/>
      </ItemDef>
      <ItemDef OID="IT.OM.OMSTRESC" Name="OMSTRESC" DataType="text" Length="7" SASFieldName="OMSTRESC">
        <Description>
          <TranslatedText xml:lang="en">Standardized Result in Character Format</TranslatedText>
        </Description>
        <def:Origin Type="Derived"/>
      </ItemDef>
      <ItemDef OID="IT.OM.OMSTRESN" Name="OMSTRESN" DataType="float" Length="8" SASFieldName="OMSTRESN"
        SignificantDigits="5" def:DisplayFormat="8.5">
        <Description>
          <TranslatedText xml:lang="en">Standardized Result in Numeric Format</TranslatedText>
        </Description>
        <def:Origin Type="Derived"/>
      </ItemDef>
      <ItemDef OID="IT.OM.OMSTRESU" Name="OMSTRESU" DataType="text" Length="2" SASFieldName="OMSTRESU">
        <Description>
          <TranslatedText xml:lang="en">Unit of the Standardized Result</TranslatedText>
        </Description>
        <CodeListRef CodeListOID="CL.OM.UNIT"/>
        <def:Origin Type="Derived"/>
      </ItemDef>
      <ItemDef OID="IT.OM.OMSPEC" Name="OMSPEC" DataType="text" Length="11" SASFieldName="OMSPEC">
        <Description>
          <TranslatedText xml:lang="en">Specimen Material Type</TranslatedText>
        </Description>
        <CodeListRef CodeListOID="CL.OM.SPEC"/>
        <def:Origin Type="Derived"/>
      </ItemDef>
      <ItemDef OID="IT.OM.RPHASE" Name="RPHASE" DataType="text" Length="9" SASFieldName="RPHASE">
        <Description>
          <TranslatedText xml:lang="en">Repro Phase</TranslatedText>
        </Description>
        <CodeListRef CodeListOID="CL.NCDPHASE"/>
        <def:Origin Type="Other"/>
      </ItemDef>
      <ItemDef OID="IT.OM.RPPLDY" Name="RPPLDY" DataType="integer" Length="2" SASFieldName="RPPLDY">
        <Description>
          <TranslatedText xml:lang="en">Planned Repro Phase Day of Observation</TranslatedText>
        </Description>
        <def:Origin Type="Derived"/>
      </ItemDef>
      <ItemDef OID="IT.OM.OMDTC" Name="OMDTC" DataType="datetime" SASFieldName="OMDTC">
        <Description>
          <TranslatedText xml:lang="en">Date/Time Organ Measured</TranslatedText>
        </Description>
        <def:Origin Type="Collected"/>
      </ItemDef>
      <ItemDef OID="IT.OM.OMRPDY" Name="OMRPDY" DataType="integer" Length="2" SASFieldName="OMRPDY">
        <Description>
          <TranslatedText xml:lang="en">Actual Repro Phase Day of Observation</TranslatedText>
        </Description>
        <def:Origin Type="Derived"/>
      </ItemDef>
      <ItemDef OID="IT.SC.STUDYID" Name="STUDYID" DataType="text" Length="10" SASFieldName="STUDYID">
        <Description>
          <TranslatedText xml:lang="en">Study Identifier</TranslatedText>
        </Description>
        <def:Origin Type="Other"/>
      </ItemDef>
      <ItemDef OID="IT.SC.DOMAIN" Name="DOMAIN" DataType="text" Length="2" SASFieldName="DOMAIN">
        <Description>
          <TranslatedText xml:lang="en">Domain Abbreviation</TranslatedText>
        </Description>
        <def:Origin Type="Other"/>
      </ItemDef>
      <ItemDef OID="IT.SC.USUBJID" Name="USUBJID" DataType="text" Length="15" SASFieldName="USUBJID">
        <Description>
          <TranslatedText xml:lang="en">Unique Subject Identifier</TranslatedText>
        </Description>
        <def:Origin Type="Other"/>
      </ItemDef>
      <ItemDef OID="IT.SC.SCSEQ" Name="SCSEQ" DataType="integer" Length="1" SASFieldName="SCSEQ">
        <Description>
          <TranslatedText xml:lang="en">Sequence Number</TranslatedText>
        </Description>
        <def:Origin Type="Other"/>
      </ItemDef>
      <ItemDef OID="IT.SC.SCTESTCD" Name="SCTESTCD" DataType="text" Length="8" SASFieldName="SCTESTCD"
        def:CommentOID="COM.CMTTEST">
        <Description>
          <TranslatedText xml:lang="en">Subject Characteristic Short Name</TranslatedText>
        </Description>
        <CodeListRef CodeListOID="CL.SBCCDSND"/>
        <def:Origin Type="Other"/>
      </ItemDef>
      <ItemDef OID="IT.SC.SCTEST" Name="SCTEST" DataType="text" Length="13" SASFieldName="SCTEST">
        <Description>
          <TranslatedText xml:lang="en">Subject Characteristic</TranslatedText>
        </Description>
        <CodeListRef CodeListOID="CL.SBCSND"/>
        <def:Origin Type="Other"/>
      </ItemDef>
      <ItemDef OID="IT.SC.SCORRES" Name="SCORRES" DataType="text" Length="4" SASFieldName="SCORRES">
        <Description>
          <TranslatedText xml:lang="en">Result or Findings as Collected</TranslatedText>
        </Description>
        <def:Origin Type="Collected"/>
      </ItemDef>
      <ItemDef OID="IT.SC.SCSTRESC" Name="SCSTRESC" DataType="text" Length="4" SASFieldName="SCSTRESC">
        <Description>
          <TranslatedText xml:lang="en">Standardized Result in Character Format</TranslatedText>
        </Description>
        <def:Origin Type="Derived"/>
      </ItemDef>
      <ItemDef OID="IT.POOLDEF.STUDYID" Name="STUDYID" DataType="text" Length="10" SASFieldName="STUDYID">
        <Description>
          <TranslatedText xml:lang="en">Study Identifier</TranslatedText>
        </Description>
        <def:Origin Type="Other"/>
      </ItemDef>
      <ItemDef OID="IT.POOLDEF.POOLID" Name="POOLID" DataType="text" Length="13" SASFieldName="POOLID">
        <Description>
          <TranslatedText xml:lang="en">Pool Identifier</TranslatedText>
        </Description>
        <def:Origin Type="Other"/>
      </ItemDef>
      <ItemDef OID="IT.POOLDEF.USUBJID" Name="USUBJID" DataType="text" Length="15" SASFieldName="USUBJID">
        <Description>
          <TranslatedText xml:lang="en">Unique Subject Identifier</TranslatedText>
        </Description>
        <def:Origin Type="Other"/>
      </ItemDef>
      <ItemDef OID="IT.SUPPCL.STUDYID" Name="STUDYID" DataType="text" Length="10" SASFieldName="STUDYID">
        <Description>
          <TranslatedText xml:lang="en">Study Identifier</TranslatedText>
        </Description>
        <def:Origin Type="Other"/>
      </ItemDef>
      <ItemDef OID="IT.SUPPCL.RDOMAIN" Name="RDOMAIN" DataType="text" Length="2" SASFieldName="RDOMAIN">
        <Description>
          <TranslatedText xml:lang="en">Related Domain Abbreviation</TranslatedText>
        </Description>
        <CodeListRef CodeListOID="CL.SUPPCL.RDOMAIN"/>
        <def:Origin Type="Other"/>
      </ItemDef>
      <ItemDef OID="IT.SUPPCL.USUBJID" Name="USUBJID" DataType="text" Length="15" SASFieldName="USUBJID">
        <Description>
          <TranslatedText xml:lang="en">Unique Subject Identifier</TranslatedText>
        </Description>
        <def:Origin Type="Other"/>
      </ItemDef>
      <ItemDef OID="IT.SUPPCL.IDVAR" Name="IDVAR" DataType="text" Length="5" SASFieldName="IDVAR">
        <Description>
          <TranslatedText xml:lang="en">Identifying Variable</TranslatedText>
        </Description>
        <def:Origin Type="Other"/>
      </ItemDef>
      <ItemDef OID="IT.SUPPCL.IDVARVAL" Name="IDVARVAL" DataType="text" Length="2" SASFieldName="IDVARVAL">
        <Description>
          <TranslatedText xml:lang="en">Identifying Variable Value</TranslatedText>
        </Description>
        <def:Origin Type="Other"/>
      </ItemDef>
      <ItemDef OID="IT.SUPPCL.QNAM" Name="QNAM" DataType="text" Length="8" SASFieldName="QNAM">
        <Description>
          <TranslatedText xml:lang="en">Qualifier Variable Name</TranslatedText>
        </Description>
        <def:Origin Type="Other"/>
      </ItemDef>
      <ItemDef OID="IT.SUPPCL.QLABEL" Name="QLABEL" DataType="text" Length="16" SASFieldName="QLABEL">
        <Description>
          <TranslatedText xml:lang="en">Qualifier Variable Label</TranslatedText>
        </Description>
        <def:Origin Type="Other"/>
      </ItemDef>
      <ItemDef OID="IT.SUPPCL.QVAL" Name="QVAL" DataType="text" Length="28" SASFieldName="QVAL">
        <Description>
          <TranslatedText xml:lang="en">Data Value</TranslatedText>
        </Description>
        <def:Origin Type="Collected"/>
        <def:ValueListRef ValueListOID="VL.SUPPCL.QVAL"/>
      </ItemDef>
      <ItemDef OID="IT.SUPPCL.QORIG" Name="QORIG" DataType="text" Length="9" SASFieldName="QORIG">
        <Description>
          <TranslatedText xml:lang="en">Origin</TranslatedText>
        </Description>
        <def:Origin Type="Other"/>
      </ItemDef>
      <ItemDef OID="IT.BW.BWORRES._318" Name="_318" DataType="integer" Length="3" SASFieldName="_318">
        <Description>
          <TranslatedText xml:lang="en">Body Weight</TranslatedText>
        </Description>
        <def:Origin Type="Collected"/>
      </ItemDef>
      <ItemDef OID="IT.BW.BWORRES.BW" Name="BW" DataType="integer" Length="3" SASFieldName="BW">
        <Description>
          <TranslatedText xml:lang="en">Body Weight</TranslatedText>
        </Description>
        <def:Origin Type="Collected"/>
      </ItemDef>
      <ItemDef OID="IT.BW.BWORRES.TERMBW" Name="TERMBW" DataType="integer" Length="3" SASFieldName="TERMBW">
        <Description>
          <TranslatedText xml:lang="en">Terminal Body Weight</TranslatedText>
        </Description>
        <def:Origin Type="Collected"/>
      </ItemDef>
      <ItemDef OID="IT.DP.DPORRES.PREPUTSE" Name="PREPUTSE" DataType="text" Length="1" SASFieldName="PREPUTSE">
        <Description>
          <TranslatedText xml:lang="en">Preputial Separation</TranslatedText>
        </Description>
        <def:Origin Type="Collected"/>
      </ItemDef>
      <ItemDef OID="IT.DP.DPORRES.VAGOPEN" Name="VAGOPEN" DataType="text" Length="1" SASFieldName="VAGOPEN">
        <Description>
          <TranslatedText xml:lang="en">Vaginal Opening</TranslatedText>
        </Description>
        <def:Origin Type="Collected"/>
      </ItemDef>
      <ItemDef OID="IT.DP.DPSTRESC.PREPUTSE" Name="PREPUTSE" DataType="text" Length="4" SASFieldName="PREPUTSE">
        <Description>
          <TranslatedText xml:lang="en">Preputial Separation</TranslatedText>
        </Description>
        <def:Origin Type="Derived"/>
      </ItemDef>
      <ItemDef OID="IT.DP.DPSTRESC.VAGOPEN" Name="VAGOPEN" DataType="text" Length="4" SASFieldName="VAGOPEN">
        <Description>
          <TranslatedText xml:lang="en">Vaginal Opening</TranslatedText>
        </Description>
        <def:Origin Type="Derived"/>
      </ItemDef>
      <ItemDef OID="IT.FW.FWORRES.FC" Name="FC" DataType="integer" Length="3" SASFieldName="FC">
        <Description>
          <TranslatedText xml:lang="en">Food Consumption</TranslatedText>
        </Description>
        <def:Origin Type="Collected"/>
      </ItemDef>
      <ItemDef OID="IT.FW.FWSTRESC.FC" Name="FC" DataType="integer" Length="2" SASFieldName="FC">
        <Description>
          <TranslatedText xml:lang="en">Food Consumption</TranslatedText>
        </Description>
        <def:Origin Type="Derived"/>
      </ItemDef>
      <ItemDef OID="IT.LB.LBORRES.ALB" Name="ALB" DataType="float" Length="3" SASFieldName="ALB" SignificantDigits="1"
        def:DisplayFormat="3.1">
        <Description>
          <TranslatedText xml:lang="en">Albumin</TranslatedText>
        </Description>
        <def:Origin Type="Collected"/>
      </ItemDef>
      <ItemDef OID="IT.LB.LBORRES.ALBGLOB" Name="ALBGLOB" DataType="float" Length="4" SASFieldName="ALBGLOB"
        SignificantDigits="2" def:DisplayFormat="4.2">
        <Description>
          <TranslatedText xml:lang="en">Albumin/Globulin</TranslatedText>
        </Description>
        <def:Origin Type="Collected"/>
      </ItemDef>
      <ItemDef OID="IT.LB.LBORRES.ALP" Name="ALP" DataType="integer" Length="3" SASFieldName="ALP">
        <Description>
          <TranslatedText xml:lang="en">Alkaline Phosphatase</TranslatedText>
        </Description>
        <def:Origin Type="Collected"/>
      </ItemDef>
      <ItemDef OID="IT.LB.LBORRES.ALT" Name="ALT" DataType="integer" Length="2" SASFieldName="ALT">
        <Description>
          <TranslatedText xml:lang="en">Alanine Aminotransferase</TranslatedText>
        </Description>
        <def:Origin Type="Collected"/>
      </ItemDef>
      <ItemDef OID="IT.LB.LBORRES.ALTAST" Name="ALTAST" DataType="float" Length="3" SASFieldName="ALTAST"
