<?xml version="1.0" encoding="UTF-8"?>
<?xml-stylesheet type="text/xsl" href="define2-0-0.xsl"?>
<!-- Produced from SAS data using the SAS Clinical Standards Toolkit 1.7 -->
<ODM xmlns:xlink="http://www.w3.org/1999/xlink" xmlns:def="http://www.cdisc.org/ns/def/v2.0" xmlns="http://www.cdisc.org/ns/odm/v1.3" FileOID="BestPharmaceuticals.com/Study5894/1" CreationDateTime="2022-05-31T17:03:52-04:00" FileType="Snapshot" ODMVersion="1.3.2">
  <Study OID="BestPharmaceuticals.com/Study5894">
    <GlobalVariables>
      <StudyName>CDISC01</StudyName>
      <StudyDescription>CDISC Test Study</StudyDescription>
      <ProtocolName>CDISC01</ProtocolName>
    </GlobalVariables>
    <MetaDataVersion OID="MDV.CDISC01.SDTMIG.3.1.2.SDTM.1.2" Name="Data Definitions for CDISC01, SDTM-IG 3.1.2" Description="Data Definitions for CDISC01, SDTM-IG 3.1.2" def:DefineVersion="2.0.0" def:StandardName="SDTM-IG" def:StandardVersion="3.1.2">
      <def:AnnotatedCRF>
        <def:DocumentRef leafID="LF.acrf.001"/>
      </def:AnnotatedCRF>
      <def:SupplementalDoc>
        <def:DocumentRef leafID="LF.supportdoc.001"/>
        <def:DocumentRef leafID="LF.supportdoc.002"/>
      </def:SupplementalDoc>
      <def:ValueListDef OID="VL.DA.DAORRES">
        <ItemRef ItemOID="IT.DA.DAORRES.WC.DA.DAORRES.00001" OrderNumber="1" Mandatory="No">
          <def:WhereClauseRef WhereClauseOID="WC.DA.DAORRES.00001"/>
        </ItemRef>
        <ItemRef ItemOID="IT.DA.DAORRES.WC.DA.DAORRES.00002" OrderNumber="2" Mandatory="No">
          <def:WhereClauseRef WhereClauseOID="WC.DA.DAORRES.00002"/>
        </ItemRef>
      </def:ValueListDef>
      <def:ValueListDef OID="VL.EG.EGORRES">
        <ItemRef ItemOID="IT.EG.EGORRES.WC.EG.EGORRES.00003" OrderNumber="1" Mandatory="No">
          <def:WhereClauseRef WhereClauseOID="WC.EG.EGORRES.00003"/>
        </ItemRef>
        <ItemRef ItemOID="IT.EG.EGORRES.WC.EG.EGORRES.00004" OrderNumber="2" Mandatory="No">
          <def:WhereClauseRef WhereClauseOID="WC.EG.EGORRES.00004"/>
        </ItemRef>
        <ItemRef ItemOID="IT.EG.EGORRES.WC.EG.EGORRES.00005" OrderNumber="3" Mandatory="No">
          <def:WhereClauseRef WhereClauseOID="WC.EG.EGORRES.00005"/>
        </ItemRef>
        <ItemRef ItemOID="IT.EG.EGORRES.WC.EG.EGORRES.00006" OrderNumber="4" Mandatory="No">
          <def:WhereClauseRef WhereClauseOID="WC.EG.EGORRES.00006"/>
        </ItemRef>
        <ItemRef ItemOID="IT.EG.EGORRES.WC.EG.EGORRES.00007" OrderNumber="5" Mandatory="No">
          <def:WhereClauseRef WhereClauseOID="WC.EG.EGORRES.00007"/>
        </ItemRef>
      </def:ValueListDef>
      <def:ValueListDef OID="VL.EG.EGSTRESC">
        <ItemRef ItemOID="IT.EG.EGSTRESC.WC.EG.EGSTRESC.00008" OrderNumber="1" Mandatory="No" MethodOID="MT.EG.EGSTRESC.WC.EG.EGSTRESC.00008">
          <def:WhereClauseRef WhereClauseOID="WC.EG.EGSTRESC.00008"/>
        </ItemRef>
        <ItemRef ItemOID="IT.EG.EGSTRESC.WC.EG.EGSTRESC.00009" OrderNumber="2" Mandatory="No" MethodOID="MT.EG.EGSTRESC.WC.EG.EGSTRESC.00009">
          <def:WhereClauseRef WhereClauseOID="WC.EG.EGSTRESC.00009"/>
        </ItemRef>
      </def:ValueListDef>
      <def:ValueListDef OID="VL.IE.IEORRES">
        <ItemRef ItemOID="IT.IE.IEORRES.WC.IE.IEORRES.00010" OrderNumber="1" Mandatory="No">
          <def:WhereClauseRef WhereClauseOID="WC.IE.IEORRES.00010"/>
        </ItemRef>
        <ItemRef ItemOID="IT.IE.IEORRES.WC.IE.IEORRES.00011" OrderNumber="2" Mandatory="No">
          <def:WhereClauseRef WhereClauseOID="WC.IE.IEORRES.00011"/>
        </ItemRef>
        <ItemRef ItemOID="IT.IE.IEORRES.WC.IE.IEORRES.00012" OrderNumber="3" Mandatory="No">
          <def:WhereClauseRef WhereClauseOID="WC.IE.IEORRES.00012"/>
        </ItemRef>
        <ItemRef ItemOID="IT.IE.IEORRES.WC.IE.IEORRES.00013" OrderNumber="4" Mandatory="No">
          <def:WhereClauseRef WhereClauseOID="WC.IE.IEORRES.00013"/>
        </ItemRef>
        <ItemRef ItemOID="IT.IE.IEORRES.WC.IE.IEORRES.00014" OrderNumber="5" Mandatory="No">
          <def:WhereClauseRef WhereClauseOID="WC.IE.IEORRES.00014"/>
        </ItemRef>
        <ItemRef ItemOID="IT.IE.IEORRES.WC.IE.IEORRES.00015" OrderNumber="6" Mandatory="No">
          <def:WhereClauseRef WhereClauseOID="WC.IE.IEORRES.00015"/>
        </ItemRef>
      </def:ValueListDef>
      <def:ValueListDef OID="VL.LB.LBORRES">
        <ItemRef ItemOID="IT.LB.LBORRES.WC.LB.LBORRES.00016" OrderNumber="1" Mandatory="No">
          <def:WhereClauseRef WhereClauseOID="WC.LB.LBORRES.00016"/>
        </ItemRef>
        <ItemRef ItemOID="IT.LB.LBORRES.WC.LB.LBORRES.00017" OrderNumber="2" Mandatory="No">
          <def:WhereClauseRef WhereClauseOID="WC.LB.LBORRES.00017"/>
        </ItemRef>
        <ItemRef ItemOID="IT.LB.LBORRES.WC.LB.LBORRES.00018" OrderNumber="3" Mandatory="No">
          <def:WhereClauseRef WhereClauseOID="WC.LB.LBORRES.00018"/>
        </ItemRef>
        <ItemRef ItemOID="IT.LB.LBORRES.WC.LB.LBORRES.00019" OrderNumber="4" Mandatory="No">
          <def:WhereClauseRef WhereClauseOID="WC.LB.LBORRES.00019"/>
        </ItemRef>
        <ItemRef ItemOID="IT.LB.LBORRES.WC.LB.LBORRES.00020" OrderNumber="5" Mandatory="No">
          <def:WhereClauseRef WhereClauseOID="WC.LB.LBORRES.00020"/>
        </ItemRef>
        <ItemRef ItemOID="IT.LB.LBORRES.WC.LB.LBORRES.00021" OrderNumber="6" Mandatory="No">
          <def:WhereClauseRef WhereClauseOID="WC.LB.LBORRES.00021"/>
        </ItemRef>
        <ItemRef ItemOID="IT.LB.LBORRES.WC.LB.LBORRES.00022" OrderNumber="7" Mandatory="No">
          <def:WhereClauseRef WhereClauseOID="WC.LB.LBORRES.00022"/>
        </ItemRef>
        <ItemRef ItemOID="IT.LB.LBORRES.WC.LB.LBORRES.00023" OrderNumber="8" Mandatory="No">
          <def:WhereClauseRef WhereClauseOID="WC.LB.LBORRES.00023"/>
        </ItemRef>
        <ItemRef ItemOID="IT.LB.LBORRES.WC.LB.LBORRES.00024" OrderNumber="9" Mandatory="No">
          <def:WhereClauseRef WhereClauseOID="WC.LB.LBORRES.00024"/>
        </ItemRef>
        <ItemRef ItemOID="IT.LB.LBORRES.WC.LB.LBORRES.00025" OrderNumber="10" Mandatory="No">
          <def:WhereClauseRef WhereClauseOID="WC.LB.LBORRES.00025"/>
        </ItemRef>
        <ItemRef ItemOID="IT.LB.LBORRES.WC.LB.LBORRES.00026" OrderNumber="11" Mandatory="No">
          <def:WhereClauseRef WhereClauseOID="WC.LB.LBORRES.00026"/>
        </ItemRef>
        <ItemRef ItemOID="IT.LB.LBORRES.WC.LB.LBORRES.00027" OrderNumber="12" Mandatory="No">
          <def:WhereClauseRef WhereClauseOID="WC.LB.LBORRES.00027"/>
        </ItemRef>
      </def:ValueListDef>
      <def:ValueListDef OID="VL.PE.PEORRES">
        <ItemRef ItemOID="IT.PE.PEORRES.WC.PE.PEORRES.00028" OrderNumber="1" Mandatory="No">
          <def:WhereClauseRef WhereClauseOID="WC.PE.PEORRES.00028"/>
        </ItemRef>
        <ItemRef ItemOID="IT.PE.PEORRES.WC.PE.PEORRES.00029" OrderNumber="2" Mandatory="No">
          <def:WhereClauseRef WhereClauseOID="WC.PE.PEORRES.00029"/>
        </ItemRef>
        <ItemRef ItemOID="IT.PE.PEORRES.WC.PE.PEORRES.00030" OrderNumber="3" Mandatory="No">
          <def:WhereClauseRef WhereClauseOID="WC.PE.PEORRES.00030"/>
        </ItemRef>
        <ItemRef ItemOID="IT.PE.PEORRES.WC.PE.PEORRES.00031" OrderNumber="4" Mandatory="No">
          <def:WhereClauseRef WhereClauseOID="WC.PE.PEORRES.00031"/>
        </ItemRef>
        <ItemRef ItemOID="IT.PE.PEORRES.WC.PE.PEORRES.00032" OrderNumber="5" Mandatory="No">
          <def:WhereClauseRef WhereClauseOID="WC.PE.PEORRES.00032"/>
        </ItemRef>
        <ItemRef ItemOID="IT.PE.PEORRES.WC.PE.PEORRES.00033" OrderNumber="6" Mandatory="No">
          <def:WhereClauseRef WhereClauseOID="WC.PE.PEORRES.00033"/>
        </ItemRef>
        <ItemRef ItemOID="IT.PE.PEORRES.WC.PE.PEORRES.00034" OrderNumber="7" Mandatory="No">
          <def:WhereClauseRef WhereClauseOID="WC.PE.PEORRES.00034"/>
        </ItemRef>
        <ItemRef ItemOID="IT.PE.PEORRES.WC.PE.PEORRES.00035" OrderNumber="8" Mandatory="No">
          <def:WhereClauseRef WhereClauseOID="WC.PE.PEORRES.00035"/>
        </ItemRef>
        <ItemRef ItemOID="IT.PE.PEORRES.WC.PE.PEORRES.00036" OrderNumber="9" Mandatory="No">
          <def:WhereClauseRef WhereClauseOID="WC.PE.PEORRES.00036"/>
        </ItemRef>
      </def:ValueListDef>
      <def:ValueListDef OID="VL.QSCG.QSORRES">
        <ItemRef ItemOID="IT.QSCG.QSORRES.WC.QSCG.QSORRES.00037" OrderNumber="1" Mandatory="No">
          <def:WhereClauseRef WhereClauseOID="WC.QSCG.QSORRES.00037"/>
        </ItemRef>
      </def:ValueListDef>
      <def:ValueListDef OID="VL.QSCS.QSORRES">
        <ItemRef ItemOID="IT.QSCS.QSORRES.WC.QSCS.QSORRES.00038" OrderNumber="2" Mandatory="No">
          <def:WhereClauseRef WhereClauseOID="WC.QSCS.QSORRES.00038"/>
        </ItemRef>
        <ItemRef ItemOID="IT.QSCS.QSORRES.WC.QSCS.QSORRES.00039" OrderNumber="3" Mandatory="No">
          <def:WhereClauseRef WhereClauseOID="WC.QSCS.QSORRES.00039"/>
        </ItemRef>
        <ItemRef ItemOID="IT.QSCS.QSORRES.WC.QSCS.QSORRES.00040" OrderNumber="4" Mandatory="No">
          <def:WhereClauseRef WhereClauseOID="WC.QSCS.QSORRES.00040"/>
        </ItemRef>
        <ItemRef ItemOID="IT.QSCS.QSORRES.WC.QSCS.QSORRES.00041" OrderNumber="5" Mandatory="No">
          <def:WhereClauseRef WhereClauseOID="WC.QSCS.QSORRES.00041"/>
        </ItemRef>
        <ItemRef ItemOID="IT.QSCS.QSORRES.WC.QSCS.QSORRES.00042" OrderNumber="6" Mandatory="No">
          <def:WhereClauseRef WhereClauseOID="WC.QSCS.QSORRES.00042"/>
        </ItemRef>
        <ItemRef ItemOID="IT.QSCS.QSORRES.WC.QSCS.QSORRES.00043" OrderNumber="7" Mandatory="No">
          <def:WhereClauseRef WhereClauseOID="WC.QSCS.QSORRES.00043"/>
        </ItemRef>
        <ItemRef ItemOID="IT.QSCS.QSORRES.WC.QSCS.QSORRES.00044" OrderNumber="8" Mandatory="No">
          <def:WhereClauseRef WhereClauseOID="WC.QSCS.QSORRES.00044"/>
        </ItemRef>
        <ItemRef ItemOID="IT.QSCS.QSORRES.WC.QSCS.QSORRES.00045" OrderNumber="9" Mandatory="No">
          <def:WhereClauseRef WhereClauseOID="WC.QSCS.QSORRES.00045"/>
        </ItemRef>
        <ItemRef ItemOID="IT.QSCS.QSORRES.WC.QSCS.QSORRES.00046" OrderNumber="10" Mandatory="No">
          <def:WhereClauseRef WhereClauseOID="WC.QSCS.QSORRES.00046"/>
        </ItemRef>
        <ItemRef ItemOID="IT.QSCS.QSORRES.WC.QSCS.QSORRES.00047" OrderNumber="11" Mandatory="No">
          <def:WhereClauseRef WhereClauseOID="WC.QSCS.QSORRES.00047"/>
        </ItemRef>
        <ItemRef ItemOID="IT.QSCS.QSORRES.WC.QSCS.QSORRES.00048" OrderNumber="12" Mandatory="No">
          <def:WhereClauseRef WhereClauseOID="WC.QSCS.QSORRES.00048"/>
        </ItemRef>
        <ItemRef ItemOID="IT.QSCS.QSORRES.WC.QSCS.QSORRES.00049" OrderNumber="13" Mandatory="No">
          <def:WhereClauseRef WhereClauseOID="WC.QSCS.QSORRES.00049"/>
        </ItemRef>
        <ItemRef ItemOID="IT.QSCS.QSORRES.WC.QSCS.QSORRES.00050" OrderNumber="14" Mandatory="No">
          <def:WhereClauseRef WhereClauseOID="WC.QSCS.QSORRES.00050"/>
        </ItemRef>
        <ItemRef ItemOID="IT.QSCS.QSORRES.WC.QSCS.QSORRES.00051" OrderNumber="15" Mandatory="No">
          <def:WhereClauseRef WhereClauseOID="WC.QSCS.QSORRES.00051"/>
        </ItemRef>
        <ItemRef ItemOID="IT.QSCS.QSORRES.WC.QSCS.QSORRES.00052" OrderNumber="16" Mandatory="No">
          <def:WhereClauseRef WhereClauseOID="WC.QSCS.QSORRES.00052"/>
        </ItemRef>
        <ItemRef ItemOID="IT.QSCS.QSORRES.WC.QSCS.QSORRES.00053" OrderNumber="17" Mandatory="No">
          <def:WhereClauseRef WhereClauseOID="WC.QSCS.QSORRES.00053"/>
        </ItemRef>
        <ItemRef ItemOID="IT.QSCS.QSORRES.WC.QSCS.QSORRES.00054" OrderNumber="18" Mandatory="No">
          <def:WhereClauseRef WhereClauseOID="WC.QSCS.QSORRES.00054"/>
        </ItemRef>
        <ItemRef ItemOID="IT.QSCS.QSORRES.WC.QSCS.QSORRES.00055" OrderNumber="19" Mandatory="No">
          <def:WhereClauseRef WhereClauseOID="WC.QSCS.QSORRES.00055"/>
        </ItemRef>
        <ItemRef ItemOID="IT.QSCS.QSORRES.WC.QSCS.QSORRES.00056" OrderNumber="20" Mandatory="No">
          <def:WhereClauseRef WhereClauseOID="WC.QSCS.QSORRES.00056"/>
        </ItemRef>
        <ItemRef ItemOID="IT.QSCS.QSORRES.WC.QSCS.QSORRES.00057" OrderNumber="21" Mandatory="No">
          <def:WhereClauseRef WhereClauseOID="WC.QSCS.QSORRES.00057"/>
        </ItemRef>
      </def:ValueListDef>
      <def:ValueListDef OID="VL.QSMM.QSORRES">
        <ItemRef ItemOID="IT.QSMM.QSORRES.WC.QSMM.QSORRES.00058" OrderNumber="22" Mandatory="No">
          <def:WhereClauseRef WhereClauseOID="WC.QSMM.QSORRES.00058"/>
        </ItemRef>
        <ItemRef ItemOID="IT.QSMM.QSORRES.WC.QSMM.QSORRES.00059" OrderNumber="23" Mandatory="No">
          <def:WhereClauseRef WhereClauseOID="WC.QSMM.QSORRES.00059"/>
        </ItemRef>
        <ItemRef ItemOID="IT.QSMM.QSORRES.WC.QSMM.QSORRES.00060" OrderNumber="24" Mandatory="No">
          <def:WhereClauseRef WhereClauseOID="WC.QSMM.QSORRES.00060"/>
        </ItemRef>
        <ItemRef ItemOID="IT.QSMM.QSORRES.WC.QSMM.QSORRES.00061" OrderNumber="25" Mandatory="No">
          <def:WhereClauseRef WhereClauseOID="WC.QSMM.QSORRES.00061"/>
        </ItemRef>
        <ItemRef ItemOID="IT.QSMM.QSORRES.WC.QSMM.QSORRES.00062" OrderNumber="26" Mandatory="No">
          <def:WhereClauseRef WhereClauseOID="WC.QSMM.QSORRES.00062"/>
        </ItemRef>
        <ItemRef ItemOID="IT.QSMM.QSORRES.WC.QSMM.QSORRES.00063" OrderNumber="27" Mandatory="No">
          <def:WhereClauseRef WhereClauseOID="WC.QSMM.QSORRES.00063"/>
        </ItemRef>
        <ItemRef ItemOID="IT.QSMM.QSORRES.WC.QSMM.QSORRES.00064" OrderNumber="28" Mandatory="No">
          <def:WhereClauseRef WhereClauseOID="WC.QSMM.QSORRES.00064"/>
        </ItemRef>
      </def:ValueListDef>
      <def:ValueListDef OID="VL.SC.SCORRES">
        <ItemRef ItemOID="IT.SC.SCORRES.WC.SC.SCORRES.00065" OrderNumber="1" Mandatory="No">
          <def:WhereClauseRef WhereClauseOID="WC.SC.SCORRES.00065"/>
        </ItemRef>
        <ItemRef ItemOID="IT.SC.SCORRES.WC.SC.SCORRES.00066" OrderNumber="2" Mandatory="No">
          <def:WhereClauseRef WhereClauseOID="WC.SC.SCORRES.00066"/>
        </ItemRef>
        <ItemRef ItemOID="IT.SC.SCORRES.WC.SC.SCORRES.00067" OrderNumber="3" Mandatory="No">
          <def:WhereClauseRef WhereClauseOID="WC.SC.SCORRES.00067"/>
        </ItemRef>
      </def:ValueListDef>
      <def:ValueListDef OID="VL.SUPPAE.QVAL">
        <ItemRef ItemOID="IT.SUPPAE.QVAL.WC.SUPPAE.QVAL.00068" OrderNumber="1" Mandatory="No" MethodOID="MT.SUPPAE.QVAL.WC.SUPPAE.QVAL.00068">
          <def:WhereClauseRef WhereClauseOID="WC.SUPPAE.QVAL.00068"/>
        </ItemRef>
        <ItemRef ItemOID="IT.SUPPAE.QVAL.WC.SUPPAE.QVAL.00069" OrderNumber="2" Mandatory="No">
          <def:WhereClauseRef WhereClauseOID="WC.SUPPAE.QVAL.00069"/>
        </ItemRef>
        <ItemRef ItemOID="IT.SUPPAE.QVAL.WC.SUPPAE.QVAL.00070" OrderNumber="3" Mandatory="No">
          <def:WhereClauseRef WhereClauseOID="WC.SUPPAE.QVAL.00070"/>
        </ItemRef>
        <ItemRef ItemOID="IT.SUPPAE.QVAL.WC.SUPPAE.QVAL.00071" OrderNumber="4" Mandatory="No">
          <def:WhereClauseRef WhereClauseOID="WC.SUPPAE.QVAL.00071"/>
        </ItemRef>
      </def:ValueListDef>
      <def:ValueListDef OID="VL.SUPPCM.QVAL">
        <ItemRef ItemOID="IT.SUPPCM.QVAL.WC.SUPPCM.QVAL.00072" OrderNumber="1" Mandatory="No">
          <def:WhereClauseRef WhereClauseOID="WC.SUPPCM.QVAL.00072"/>
        </ItemRef>
        <ItemRef ItemOID="IT.SUPPCM.QVAL.WC.SUPPCM.QVAL.00073" OrderNumber="2" Mandatory="No">
          <def:WhereClauseRef WhereClauseOID="WC.SUPPCM.QVAL.00073"/>
        </ItemRef>
        <ItemRef ItemOID="IT.SUPPCM.QVAL.WC.SUPPCM.QVAL.00074" OrderNumber="3" Mandatory="No">
          <def:WhereClauseRef WhereClauseOID="WC.SUPPCM.QVAL.00074"/>
        </ItemRef>
        <ItemRef ItemOID="IT.SUPPCM.QVAL.WC.SUPPCM.QVAL.00075" OrderNumber="4" Mandatory="No">
          <def:WhereClauseRef WhereClauseOID="WC.SUPPCM.QVAL.00075"/>
        </ItemRef>
        <ItemRef ItemOID="IT.SUPPCM.QVAL.WC.SUPPCM.QVAL.00076" OrderNumber="5" Mandatory="No">
          <def:WhereClauseRef WhereClauseOID="WC.SUPPCM.QVAL.00076"/>
        </ItemRef>
      </def:ValueListDef>
      <def:ValueListDef OID="VL.SUPPDM.QVAL">
        <ItemRef ItemOID="IT.SUPPDM.QVAL.WC.SUPPDM.QVAL.00077" OrderNumber="1" Mandatory="No">
          <def:WhereClauseRef WhereClauseOID="WC.SUPPDM.QVAL.00077"/>
        </ItemRef>
        <ItemRef ItemOID="IT.SUPPDM.QVAL.WC.SUPPDM.QVAL.00078" OrderNumber="2" Mandatory="No">
          <def:WhereClauseRef WhereClauseOID="WC.SUPPDM.QVAL.00078"/>
        </ItemRef>
        <ItemRef ItemOID="IT.SUPPDM.QVAL.WC.SUPPDM.QVAL.00079" OrderNumber="3" Mandatory="No">
          <def:WhereClauseRef WhereClauseOID="WC.SUPPDM.QVAL.00079"/>
        </ItemRef>
        <ItemRef ItemOID="IT.SUPPDM.QVAL.WC.SUPPDM.QVAL.00080" OrderNumber="4" Mandatory="No">
          <def:WhereClauseRef WhereClauseOID="WC.SUPPDM.QVAL.00080"/>
        </ItemRef>
        <ItemRef ItemOID="IT.SUPPDM.QVAL.WC.SUPPDM.QVAL.00081" OrderNumber="5" Mandatory="No">
          <def:WhereClauseRef WhereClauseOID="WC.SUPPDM.QVAL.00081"/>
        </ItemRef>
        <ItemRef ItemOID="IT.SUPPDM.QVAL.WC.SUPPDM.QVAL.00082" OrderNumber="6" Mandatory="No">
          <def:WhereClauseRef WhereClauseOID="WC.SUPPDM.QVAL.00082"/>
        </ItemRef>
        <ItemRef ItemOID="IT.SUPPDM.QVAL.WC.SUPPDM.QVAL.00083" OrderNumber="7" Mandatory="No" MethodOID="MT.SUPPDM.QVAL.WC.SUPPDM.QVAL.00083">
          <def:WhereClauseRef WhereClauseOID="WC.SUPPDM.QVAL.00083"/>
        </ItemRef>
      </def:ValueListDef>
      <def:ValueListDef OID="VL.SUPPEG.QVAL">
        <ItemRef ItemOID="IT.SUPPEG.QVAL.WC.SUPPEG.QVAL.00084" OrderNumber="1" Mandatory="No">
          <def:WhereClauseRef WhereClauseOID="WC.SUPPEG.QVAL.00084"/>
        </ItemRef>
      </def:ValueListDef>
      <def:ValueListDef OID="VL.SUPPEX.QVAL">
        <ItemRef ItemOID="IT.SUPPEX.QVAL.WC.SUPPEX.QVAL.00085" OrderNumber="1" Mandatory="No">
          <def:WhereClauseRef WhereClauseOID="WC.SUPPEX.QVAL.00085"/>
        </ItemRef>
      </def:ValueListDef>
      <def:ValueListDef OID="VL.SUPPLB.QVAL">
        <ItemRef ItemOID="IT.SUPPLB.QVAL.WC.SUPPLB.QVAL.00086" OrderNumber="1" Mandatory="No" MethodOID="MT.SUPPLB.QVAL.WC.SUPPLB.QVAL.00086">
          <def:WhereClauseRef WhereClauseOID="WC.SUPPLB.QVAL.00086"/>
        </ItemRef>
      </def:ValueListDef>
      <def:ValueListDef OID="VL.SUPPQSCG.QVAL">
        <ItemRef ItemOID="IT.SUPPQSCG.QVAL.WC.SUPPQSCG.QVAL.00087" OrderNumber="1" Mandatory="No">
          <def:WhereClauseRef WhereClauseOID="WC.SUPPQSCG.QVAL.00087"/>
        </ItemRef>
      </def:ValueListDef>
      <def:ValueListDef OID="VL.SUPPQSCS.QVAL">
        <ItemRef ItemOID="IT.SUPPQSCS.QVAL.WC.SUPPQSCS.QVAL.00088" OrderNumber="1" Mandatory="No">
          <def:WhereClauseRef WhereClauseOID="WC.SUPPQSCS.QVAL.00088"/>
        </ItemRef>
      </def:ValueListDef>
      <def:ValueListDef OID="VL.SUPPQSMM.QVAL">
        <ItemRef ItemOID="IT.SUPPQSMM.QVAL.WC.SUPPQSMM.QVAL.00089" OrderNumber="1" Mandatory="No">
          <def:WhereClauseRef WhereClauseOID="WC.SUPPQSMM.QVAL.00089"/>
        </ItemRef>
      </def:ValueListDef>
      <def:ValueListDef OID="VL.SUPPVS.QVAL">
        <ItemRef ItemOID="IT.SUPPVS.QVAL.WC.SUPPVS.QVAL.00090" OrderNumber="1" Mandatory="No" MethodOID="MT.SUPPVS.QVAL.WC.SUPPVS.QVAL.00090">
          <def:WhereClauseRef WhereClauseOID="WC.SUPPVS.QVAL.00090"/>
        </ItemRef>
      </def:ValueListDef>
      <def:ValueListDef OID="VL.TS.TSVAL">
        <ItemRef ItemOID="IT.TS.TSVAL.WC.TS.TSVAL.00091" OrderNumber="1" Mandatory="No">
          <def:WhereClauseRef WhereClauseOID="WC.TS.TSVAL.00091"/>
        </ItemRef>
        <ItemRef ItemOID="IT.TS.TSVAL.WC.TS.TSVAL.00092" OrderNumber="2" Mandatory="No">
          <def:WhereClauseRef WhereClauseOID="WC.TS.TSVAL.00092"/>
        </ItemRef>
        <ItemRef ItemOID="IT.TS.TSVAL.WC.TS.TSVAL.00093" OrderNumber="3" Mandatory="No">
          <def:WhereClauseRef WhereClauseOID="WC.TS.TSVAL.00093"/>
        </ItemRef>
        <ItemRef ItemOID="IT.TS.TSVAL.WC.TS.TSVAL.00094" OrderNumber="4" Mandatory="No">
          <def:WhereClauseRef WhereClauseOID="WC.TS.TSVAL.00094"/>
        </ItemRef>
        <ItemRef ItemOID="IT.TS.TSVAL.WC.TS.TSVAL.00095" OrderNumber="5" Mandatory="No">
          <def:WhereClauseRef WhereClauseOID="WC.TS.TSVAL.00095"/>
        </ItemRef>
        <ItemRef ItemOID="IT.TS.TSVAL.WC.TS.TSVAL.00096" OrderNumber="6" Mandatory="No">
          <def:WhereClauseRef WhereClauseOID="WC.TS.TSVAL.00096"/>
        </ItemRef>
        <ItemRef ItemOID="IT.TS.TSVAL.WC.TS.TSVAL.00097" OrderNumber="7" Mandatory="No">
          <def:WhereClauseRef WhereClauseOID="WC.TS.TSVAL.00097"/>
        </ItemRef>
        <ItemRef ItemOID="IT.TS.TSVAL.WC.TS.TSVAL.00098" OrderNumber="8" Mandatory="No">
          <def:WhereClauseRef WhereClauseOID="WC.TS.TSVAL.00098"/>
        </ItemRef>
        <ItemRef ItemOID="IT.TS.TSVAL.WC.TS.TSVAL.00099" OrderNumber="9" Mandatory="No">
          <def:WhereClauseRef WhereClauseOID="WC.TS.TSVAL.00099"/>
        </ItemRef>
        <ItemRef ItemOID="IT.TS.TSVAL.WC.TS.TSVAL.00100" OrderNumber="10" Mandatory="No">
          <def:WhereClauseRef WhereClauseOID="WC.TS.TSVAL.00100"/>
        </ItemRef>
        <ItemRef ItemOID="IT.TS.TSVAL.WC.TS.TSVAL.00101" OrderNumber="11" Mandatory="No">
          <def:WhereClauseRef WhereClauseOID="WC.TS.TSVAL.00101"/>
        </ItemRef>
        <ItemRef ItemOID="IT.TS.TSVAL.WC.TS.TSVAL.00102" OrderNumber="12" Mandatory="No">
          <def:WhereClauseRef WhereClauseOID="WC.TS.TSVAL.00102"/>
        </ItemRef>
        <ItemRef ItemOID="IT.TS.TSVAL.WC.TS.TSVAL.00103" OrderNumber="13" Mandatory="No">
          <def:WhereClauseRef WhereClauseOID="WC.TS.TSVAL.00103"/>
        </ItemRef>
        <ItemRef ItemOID="IT.TS.TSVAL.WC.TS.TSVAL.00104" OrderNumber="14" Mandatory="No">
          <def:WhereClauseRef WhereClauseOID="WC.TS.TSVAL.00104"/>
        </ItemRef>
        <ItemRef ItemOID="IT.TS.TSVAL.WC.TS.TSVAL.00105" OrderNumber="15" Mandatory="No">
          <def:WhereClauseRef WhereClauseOID="WC.TS.TSVAL.00105"/>
        </ItemRef>
        <ItemRef ItemOID="IT.TS.TSVAL.WC.TS.TSVAL.00106" OrderNumber="16" Mandatory="No">
          <def:WhereClauseRef WhereClauseOID="WC.TS.TSVAL.00106"/>
        </ItemRef>
        <ItemRef ItemOID="IT.TS.TSVAL.WC.TS.TSVAL.00107" OrderNumber="17" Mandatory="No">
          <def:WhereClauseRef WhereClauseOID="WC.TS.TSVAL.00107"/>
        </ItemRef>
        <ItemRef ItemOID="IT.TS.TSVAL.WC.TS.TSVAL.00108" OrderNumber="18" Mandatory="No">
          <def:WhereClauseRef WhereClauseOID="WC.TS.TSVAL.00108"/>
        </ItemRef>
        <ItemRef ItemOID="IT.TS.TSVAL.WC.TS.TSVAL.00109" OrderNumber="19" Mandatory="No">
          <def:WhereClauseRef WhereClauseOID="WC.TS.TSVAL.00109"/>
        </ItemRef>
        <ItemRef ItemOID="IT.TS.TSVAL.WC.TS.TSVAL.00110" OrderNumber="20" Mandatory="No">
          <def:WhereClauseRef WhereClauseOID="WC.TS.TSVAL.00110"/>
        </ItemRef>
        <ItemRef ItemOID="IT.TS.TSVAL.WC.TS.TSVAL.00111" OrderNumber="21" Mandatory="No">
          <def:WhereClauseRef WhereClauseOID="WC.TS.TSVAL.00111"/>
        </ItemRef>
        <ItemRef ItemOID="IT.TS.TSVAL.WC.TS.TSVAL.00112" OrderNumber="22" Mandatory="No">
          <def:WhereClauseRef WhereClauseOID="WC.TS.TSVAL.00112"/>
        </ItemRef>
        <ItemRef ItemOID="IT.TS.TSVAL.WC.TS.TSVAL.00113" OrderNumber="23" Mandatory="No">
          <def:WhereClauseRef WhereClauseOID="WC.TS.TSVAL.00113"/>
        </ItemRef>
      </def:ValueListDef>
      <def:ValueListDef OID="VL.VS.VSORRES">
        <ItemRef ItemOID="IT.VS.VSORRES.WC.VS.VSORRES.00114" OrderNumber="1" Mandatory="No">
          <def:WhereClauseRef WhereClauseOID="WC.VS.VSORRES.00114"/>
        </ItemRef>
        <ItemRef ItemOID="IT.VS.VSORRES.WC.VS.VSORRES.00115" OrderNumber="2" Mandatory="No">
          <def:WhereClauseRef WhereClauseOID="WC.VS.VSORRES.00115"/>
        </ItemRef>
        <ItemRef ItemOID="IT.VS.VSORRES.WC.VS.VSORRES.00116" OrderNumber="3" Mandatory="No">
          <def:WhereClauseRef WhereClauseOID="WC.VS.VSORRES.00116"/>
        </ItemRef>
        <ItemRef ItemOID="IT.VS.VSORRES.WC.VS.VSORRES.00117" OrderNumber="4" Mandatory="No">
          <def:WhereClauseRef WhereClauseOID="WC.VS.VSORRES.00117"/>
        </ItemRef>
        <ItemRef ItemOID="IT.VS.VSORRES.WC.VS.VSORRES.00118" OrderNumber="5" Mandatory="No">
          <def:WhereClauseRef WhereClauseOID="WC.VS.VSORRES.00118"/>
        </ItemRef>
        <ItemRef ItemOID="IT.VS.VSORRES.WC.VS.VSORRES.00119" OrderNumber="6" Mandatory="No">
          <def:WhereClauseRef WhereClauseOID="WC.VS.VSORRES.00119"/>
        </ItemRef>
      </def:ValueListDef>
      <def:ValueListDef OID="VL.VS.VSORRESU">
        <ItemRef ItemOID="IT.VS.VSORRESU.WC.VS.VSORRESU.00120" OrderNumber="1" Mandatory="No">
          <def:WhereClauseRef WhereClauseOID="WC.VS.VSORRESU.00120"/>
        </ItemRef>
        <ItemRef ItemOID="IT.VS.VSORRESU.WC.VS.VSORRESU.00121" OrderNumber="2" Mandatory="No">
          <def:WhereClauseRef WhereClauseOID="WC.VS.VSORRESU.00121"/>
        </ItemRef>
      </def:ValueListDef>
      <def:WhereClauseDef OID="WC.DA.DAORRES.00001">
        <RangeCheck Comparator="EQ" SoftHard="Soft" def:ItemOID="IT.DA.DATESTCD">
          <CheckValue>DISPAMT</CheckValue>
        </RangeCheck>
      </def:WhereClauseDef>
      <def:WhereClauseDef OID="WC.DA.DAORRES.00002">
        <RangeCheck Comparator="EQ" SoftHard="Soft" def:ItemOID="IT.DA.DATESTCD">
          <CheckValue>RETAMT</CheckValue>
        </RangeCheck>
      </def:WhereClauseDef>
      <def:WhereClauseDef OID="WC.EG.EGORRES.00003">
        <RangeCheck Comparator="EQ" SoftHard="Soft" def:ItemOID="IT.EG.EGTESTCD">
          <CheckValue>INTP</CheckValue>
        </RangeCheck>
      </def:WhereClauseDef>
      <def:WhereClauseDef OID="WC.EG.EGORRES.00004">
        <RangeCheck Comparator="EQ" SoftHard="Soft" def:ItemOID="IT.EG.EGTESTCD">
          <CheckValue>PRMEAN</CheckValue>
        </RangeCheck>
      </def:WhereClauseDef>
      <def:WhereClauseDef OID="WC.EG.EGORRES.00005">
        <RangeCheck Comparator="EQ" SoftHard="Soft" def:ItemOID="IT.EG.EGTESTCD">
          <CheckValue>QRSDUR</CheckValue>
        </RangeCheck>
      </def:WhereClauseDef>
      <def:WhereClauseDef OID="WC.EG.EGORRES.00006">
        <RangeCheck Comparator="EQ" SoftHard="Soft" def:ItemOID="IT.EG.EGTESTCD">
          <CheckValue>QTMEAN</CheckValue>
        </RangeCheck>
      </def:WhereClauseDef>
      <def:WhereClauseDef OID="WC.EG.EGORRES.00007">
        <RangeCheck Comparator="EQ" SoftHard="Soft" def:ItemOID="IT.EG.EGTESTCD">
          <CheckValue>VRMEAN</CheckValue>
        </RangeCheck>
      </def:WhereClauseDef>
      <def:WhereClauseDef OID="WC.EG.EGSTRESC.00008">
        <RangeCheck Comparator="EQ" SoftHard="Soft" def:ItemOID="IT.EG.EGTESTCD">
          <CheckValue>QTCB</CheckValue>
        </RangeCheck>
      </def:WhereClauseDef>
      <def:WhereClauseDef OID="WC.EG.EGSTRESC.00009">
        <RangeCheck Comparator="EQ" SoftHard="Soft" def:ItemOID="IT.EG.EGTESTCD">
          <CheckValue>QTCF</CheckValue>
        </RangeCheck>
      </def:WhereClauseDef>
      <def:WhereClauseDef OID="WC.IE.IEORRES.00010">
        <RangeCheck Comparator="EQ" SoftHard="Soft" def:ItemOID="IT.IE.IETESTCD">
          <CheckValue>EXCL01</CheckValue>
        </RangeCheck>
      </def:WhereClauseDef>
      <def:WhereClauseDef OID="WC.IE.IEORRES.00011">
        <RangeCheck Comparator="EQ" SoftHard="Soft" def:ItemOID="IT.IE.IETESTCD">
          <CheckValue>EXCL02</CheckValue>
        </RangeCheck>
      </def:WhereClauseDef>
      <def:WhereClauseDef OID="WC.IE.IEORRES.00012">
        <RangeCheck Comparator="EQ" SoftHard="Soft" def:ItemOID="IT.IE.IETESTCD">
          <CheckValue>EXCL03</CheckValue>
        </RangeCheck>
      </def:WhereClauseDef>
      <def:WhereClauseDef OID="WC.IE.IEORRES.00013">
        <RangeCheck Comparator="EQ" SoftHard="Soft" def:ItemOID="IT.IE.IETESTCD">
          <CheckValue>INCL01</CheckValue>
        </RangeCheck>
      </def:WhereClauseDef>
      <def:WhereClauseDef OID="WC.IE.IEORRES.00014">
        <RangeCheck Comparator="EQ" SoftHard="Soft" def:ItemOID="IT.IE.IETESTCD">
          <CheckValue>INCL02</CheckValue>
        </RangeCheck>
      </def:WhereClauseDef>
      <def:WhereClauseDef OID="WC.IE.IEORRES.00015">
        <RangeCheck Comparator="EQ" SoftHard="Soft" def:ItemOID="IT.IE.IETESTCD">
          <CheckValue>INCL03</CheckValue>
        </RangeCheck>
      </def:WhereClauseDef>
      <def:WhereClauseDef OID="WC.LB.LBORRES.00016">
        <RangeCheck Comparator="EQ" SoftHard="Soft" def:ItemOID="IT.LB.LBTESTCD">
          <CheckValue>BILI</CheckValue>
        </RangeCheck>
        <RangeCheck Comparator="EQ" SoftHard="Soft" def:ItemOID="IT.LB.LBCAT">
          <CheckValue>CHEMISTRY</CheckValue>
        </RangeCheck>
        <RangeCheck Comparator="EQ" SoftHard="Soft" def:ItemOID="IT.LB.LBSPEC">
          <CheckValue>BLOOD</CheckValue>
        </RangeCheck>
      </def:WhereClauseDef>
      <def:WhereClauseDef OID="WC.LB.LBORRES.00017">
        <RangeCheck Comparator="EQ" SoftHard="Soft" def:ItemOID="IT.LB.LBTESTCD">
          <CheckValue>BUN</CheckValue>
        </RangeCheck>
        <RangeCheck Comparator="EQ" SoftHard="Soft" def:ItemOID="IT.LB.LBCAT">
          <CheckValue>CHEMISTRY</CheckValue>
        </RangeCheck>
        <RangeCheck Comparator="EQ" SoftHard="Soft" def:ItemOID="IT.LB.LBSPEC">
          <CheckValue>BLOOD</CheckValue>
        </RangeCheck>
      </def:WhereClauseDef>
      <def:WhereClauseDef OID="WC.LB.LBORRES.00018">
        <RangeCheck Comparator="EQ" SoftHard="Soft" def:ItemOID="IT.LB.LBTESTCD">
          <CheckValue>GLUC</CheckValue>
        </RangeCheck>
        <RangeCheck Comparator="EQ" SoftHard="Soft" def:ItemOID="IT.LB.LBCAT">
          <CheckValue>CHEMISTRY</CheckValue>
        </RangeCheck>
        <RangeCheck Comparator="EQ" SoftHard="Soft" def:ItemOID="IT.LB.LBSPEC">
          <CheckValue>BLOOD</CheckValue>
        </RangeCheck>
      </def:WhereClauseDef>
      <def:WhereClauseDef OID="WC.LB.LBORRES.00019">
        <RangeCheck Comparator="EQ" SoftHard="Soft" def:ItemOID="IT.LB.LBTESTCD">
          <CheckValue>GLUC</CheckValue>
        </RangeCheck>
        <RangeCheck Comparator="EQ" SoftHard="Soft" def:ItemOID="IT.LB.LBCAT">
          <CheckValue>URINALYSIS</CheckValue>
        </RangeCheck>
        <RangeCheck Comparator="EQ" SoftHard="Soft" def:ItemOID="IT.LB.LBSPEC">
          <CheckValue>URINE</CheckValue>
        </RangeCheck>
        <RangeCheck Comparator="EQ" SoftHard="Soft" def:ItemOID="IT.LB.LBMETHOD">
          <CheckValue>DIPSTICK</CheckValue>
        </RangeCheck>
      </def:WhereClauseDef>
      <def:WhereClauseDef OID="WC.LB.LBORRES.00020">
        <RangeCheck Comparator="EQ" SoftHard="Soft" def:ItemOID="IT.LB.LBTESTCD">
          <CheckValue>GLUC</CheckValue>
        </RangeCheck>
        <RangeCheck Comparator="EQ" SoftHard="Soft" def:ItemOID="IT.LB.LBCAT">
          <CheckValue>URINALYSIS</CheckValue>
        </RangeCheck>
        <RangeCheck Comparator="EQ" SoftHard="Soft" def:ItemOID="IT.LB.LBSPEC">
          <CheckValue>URINE</CheckValue>
        </RangeCheck>
        <RangeCheck Comparator="EQ" SoftHard="Soft" def:ItemOID="IT.LB.LBMETHOD">
          <CheckValue>QUANT</CheckValue>
        </RangeCheck>
      </def:WhereClauseDef>
      <def:WhereClauseDef OID="WC.LB.LBORRES.00021">
        <RangeCheck Comparator="EQ" SoftHard="Soft" def:ItemOID="IT.LB.LBTESTCD">
          <CheckValue>HCT</CheckValue>
        </RangeCheck>
        <RangeCheck Comparator="EQ" SoftHard="Soft" def:ItemOID="IT.LB.LBCAT">
          <CheckValue>HEMATOLOGY</CheckValue>
        </RangeCheck>
        <RangeCheck Comparator="EQ" SoftHard="Soft" def:ItemOID="IT.LB.LBSPEC">
          <CheckValue>BLOOD</CheckValue>
        </RangeCheck>
      </def:WhereClauseDef>
      <def:WhereClauseDef OID="WC.LB.LBORRES.00022">
        <RangeCheck Comparator="EQ" SoftHard="Soft" def:ItemOID="IT.LB.LBTESTCD">
          <CheckValue>HGB</CheckValue>
        </RangeCheck>
        <RangeCheck Comparator="EQ" SoftHard="Soft" def:ItemOID="IT.LB.LBCAT">
          <CheckValue>HEMATOLOGY</CheckValue>
        </RangeCheck>
        <RangeCheck Comparator="EQ" SoftHard="Soft" def:ItemOID="IT.LB.LBSPEC">
          <CheckValue>BLOOD</CheckValue>
        </RangeCheck>
      </def:WhereClauseDef>
      <def:WhereClauseDef OID="WC.LB.LBORRES.00023">
        <RangeCheck Comparator="EQ" SoftHard="Soft" def:ItemOID="IT.LB.LBTESTCD">
          <CheckValue>LYM</CheckValue>
        </RangeCheck>
        <RangeCheck Comparator="EQ" SoftHard="Soft" def:ItemOID="IT.LB.LBCAT">
          <CheckValue>HEMATOLOGY</CheckValue>
        </RangeCheck>
        <RangeCheck Comparator="EQ" SoftHard="Soft" def:ItemOID="IT.LB.LBSPEC">
          <CheckValue>BLOOD</CheckValue>
        </RangeCheck>
      </def:WhereClauseDef>
      <def:WhereClauseDef OID="WC.LB.LBORRES.00024">
        <RangeCheck Comparator="EQ" SoftHard="Soft" def:ItemOID="IT.LB.LBTESTCD">
          <CheckValue>OCCBLD</CheckValue>
        </RangeCheck>
        <RangeCheck Comparator="EQ" SoftHard="Soft" def:ItemOID="IT.LB.LBCAT">
          <CheckValue>URINALYSIS</CheckValue>
        </RangeCheck>
        <RangeCheck Comparator="EQ" SoftHard="Soft" def:ItemOID="IT.LB.LBSPEC">
          <CheckValue>URINE</CheckValue>
        </RangeCheck>
      </def:WhereClauseDef>
      <def:WhereClauseDef OID="WC.LB.LBORRES.00025">
        <RangeCheck Comparator="EQ" SoftHard="Soft" def:ItemOID="IT.LB.LBTESTCD">
          <CheckValue>PH</CheckValue>
        </RangeCheck>
        <RangeCheck Comparator="EQ" SoftHard="Soft" def:ItemOID="IT.LB.LBCAT">
          <CheckValue>URINALYSIS</CheckValue>
        </RangeCheck>
        <RangeCheck Comparator="EQ" SoftHard="Soft" def:ItemOID="IT.LB.LBSPEC">
          <CheckValue>URINE</CheckValue>
        </RangeCheck>
      </def:WhereClauseDef>
      <def:WhereClauseDef OID="WC.LB.LBORRES.00026">
        <RangeCheck Comparator="EQ" SoftHard="Soft" def:ItemOID="IT.LB.LBTESTCD">
          <CheckValue>VITB12</CheckValue>
        </RangeCheck>
        <RangeCheck Comparator="EQ" SoftHard="Soft" def:ItemOID="IT.LB.LBCAT">
          <CheckValue>CHEMISTRY</CheckValue>
        </RangeCheck>
        <RangeCheck Comparator="EQ" SoftHard="Soft" def:ItemOID="IT.LB.LBSPEC">
          <CheckValue>SERUM</CheckValue>
        </RangeCheck>
      </def:WhereClauseDef>
      <def:WhereClauseDef OID="WC.LB.LBORRES.00027">
        <RangeCheck Comparator="EQ" SoftHard="Soft" def:ItemOID="IT.LB.LBTESTCD">
          <CheckValue>VITB9</CheckValue>
        </RangeCheck>
        <RangeCheck Comparator="EQ" SoftHard="Soft" def:ItemOID="IT.LB.LBCAT">
          <CheckValue>CHEMISTRY</CheckValue>
        </RangeCheck>
        <RangeCheck Comparator="EQ" SoftHard="Soft" def:ItemOID="IT.LB.LBSPEC">
          <CheckValue>BLOOD</CheckValue>
        </RangeCheck>
      </def:WhereClauseDef>
      <def:WhereClauseDef OID="WC.PE.PEORRES.00028">
        <RangeCheck Comparator="EQ" SoftHard="Soft" def:ItemOID="IT.PE.PETESTCD">
          <CheckValue>PE01</CheckValue>
        </RangeCheck>
      </def:WhereClauseDef>
      <def:WhereClauseDef OID="WC.PE.PEORRES.00029">
        <RangeCheck Comparator="EQ" SoftHard="Soft" def:ItemOID="IT.PE.PETESTCD">
          <CheckValue>PE02</CheckValue>
        </RangeCheck>
      </def:WhereClauseDef>
      <def:WhereClauseDef OID="WC.PE.PEORRES.00030">
        <RangeCheck Comparator="EQ" SoftHard="Soft" def:ItemOID="IT.PE.PETESTCD">
          <CheckValue>PE03</CheckValue>
        </RangeCheck>
      </def:WhereClauseDef>
      <def:WhereClauseDef OID="WC.PE.PEORRES.00031">
        <RangeCheck Comparator="EQ" SoftHard="Soft" def:ItemOID="IT.PE.PETESTCD">
          <CheckValue>PE04</CheckValue>
        </RangeCheck>
      </def:WhereClauseDef>
      <def:WhereClauseDef OID="WC.PE.PEORRES.00032">
        <RangeCheck Comparator="EQ" SoftHard="Soft" def:ItemOID="IT.PE.PETESTCD">
          <CheckValue>PE05</CheckValue>
        </RangeCheck>
      </def:WhereClauseDef>
      <def:WhereClauseDef OID="WC.PE.PEORRES.00033">
        <RangeCheck Comparator="EQ" SoftHard="Soft" def:ItemOID="IT.PE.PETESTCD">
          <CheckValue>PE06</CheckValue>
        </RangeCheck>
      </def:WhereClauseDef>
      <def:WhereClauseDef OID="WC.PE.PEORRES.00034">
        <RangeCheck Comparator="EQ" SoftHard="Soft" def:ItemOID="IT.PE.PETESTCD">
          <CheckValue>PE07</CheckValue>
        </RangeCheck>
      </def:WhereClauseDef>
      <def:WhereClauseDef OID="WC.PE.PEORRES.00035">
        <RangeCheck Comparator="EQ" SoftHard="Soft" def:ItemOID="IT.PE.PETESTCD">
          <CheckValue>PE08</CheckValue>
        </RangeCheck>
      </def:WhereClauseDef>
      <def:WhereClauseDef OID="WC.PE.PEORRES.00036">
        <RangeCheck Comparator="EQ" SoftHard="Soft" def:ItemOID="IT.PE.PETESTCD">
          <CheckValue>PE09</CheckValue>
        </RangeCheck>
      </def:WhereClauseDef>
      <def:WhereClauseDef OID="WC.QSCG.QSORRES.00037">
        <RangeCheck Comparator="EQ" SoftHard="Soft" def:ItemOID="IT.QSCG.QSTESTCD">
          <CheckValue>CGIGLOB</CheckValue>
        </RangeCheck>
      </def:WhereClauseDef>
      <def:WhereClauseDef OID="WC.QSCS.QSORRES.00038">
        <RangeCheck Comparator="EQ" SoftHard="Soft" def:ItemOID="IT.QSCS.QSTESTCD">
          <CheckValue>CSDD01</CheckValue>
        </RangeCheck>
      </def:WhereClauseDef>
      <def:WhereClauseDef OID="WC.QSCS.QSORRES.00039">
        <RangeCheck Comparator="EQ" SoftHard="Soft" def:ItemOID="IT.QSCS.QSTESTCD">
          <CheckValue>CSDD02</CheckValue>
        </RangeCheck>
      </def:WhereClauseDef>
      <def:WhereClauseDef OID="WC.QSCS.QSORRES.00040">
        <RangeCheck Comparator="EQ" SoftHard="Soft" def:ItemOID="IT.QSCS.QSTESTCD">
          <CheckValue>CSDD03</CheckValue>
        </RangeCheck>
      </def:WhereClauseDef>
      <def:WhereClauseDef OID="WC.QSCS.QSORRES.00041">
        <RangeCheck Comparator="EQ" SoftHard="Soft" def:ItemOID="IT.QSCS.QSTESTCD">
          <CheckValue>CSDD04</CheckValue>
        </RangeCheck>
      </def:WhereClauseDef>
      <def:WhereClauseDef OID="WC.QSCS.QSORRES.00042">
        <RangeCheck Comparator="EQ" SoftHard="Soft" def:ItemOID="IT.QSCS.QSTESTCD">
          <CheckValue>CSDD05</CheckValue>
        </RangeCheck>
      </def:WhereClauseDef>
      <def:WhereClauseDef OID="WC.QSCS.QSORRES.00043">
        <RangeCheck Comparator="EQ" SoftHard="Soft" def:ItemOID="IT.QSCS.QSTESTCD">
          <CheckValue>CSDD06</CheckValue>
        </RangeCheck>
      </def:WhereClauseDef>
      <def:WhereClauseDef OID="WC.QSCS.QSORRES.00044">
        <RangeCheck Comparator="EQ" SoftHard="Soft" def:ItemOID="IT.QSCS.QSTESTCD">
          <CheckValue>CSDD07</CheckValue>
        </RangeCheck>
      </def:WhereClauseDef>
      <def:WhereClauseDef OID="WC.QSCS.QSORRES.00045">
        <RangeCheck Comparator="EQ" SoftHard="Soft" def:ItemOID="IT.QSCS.QSTESTCD">
          <CheckValue>CSDD08</CheckValue>
        </RangeCheck>
      </def:WhereClauseDef>
      <def:WhereClauseDef OID="WC.QSCS.QSORRES.00046">
        <RangeCheck Comparator="EQ" SoftHard="Soft" def:ItemOID="IT.QSCS.QSTESTCD">
          <CheckValue>CSDD09</CheckValue>
        </RangeCheck>
      </def:WhereClauseDef>
      <def:WhereClauseDef OID="WC.QSCS.QSORRES.00047">
        <RangeCheck Comparator="EQ" SoftHard="Soft" def:ItemOID="IT.QSCS.QSTESTCD">
          <CheckValue>CSDD10</CheckValue>
        </RangeCheck>
      </def:WhereClauseDef>
      <def:WhereClauseDef OID="WC.QSCS.QSORRES.00048">
        <RangeCheck Comparator="EQ" SoftHard="Soft" def:ItemOID="IT.QSCS.QSTESTCD">
          <CheckValue>CSDD11</CheckValue>
        </RangeCheck>
      </def:WhereClauseDef>
      <def:WhereClauseDef OID="WC.QSCS.QSORRES.00049">
        <RangeCheck Comparator="EQ" SoftHard="Soft" def:ItemOID="IT.QSCS.QSTESTCD">
          <CheckValue>CSDD12</CheckValue>
        </RangeCheck>
      </def:WhereClauseDef>
      <def:WhereClauseDef OID="WC.QSCS.QSORRES.00050">
        <RangeCheck Comparator="EQ" SoftHard="Soft" def:ItemOID="IT.QSCS.QSTESTCD">
          <CheckValue>CSDD13</CheckValue>
        </RangeCheck>
      </def:WhereClauseDef>
      <def:WhereClauseDef OID="WC.QSCS.QSORRES.00051">
        <RangeCheck Comparator="EQ" SoftHard="Soft" def:ItemOID="IT.QSCS.QSTESTCD">
          <CheckValue>CSDD14</CheckValue>
        </RangeCheck>
      </def:WhereClauseDef>
      <def:WhereClauseDef OID="WC.QSCS.QSORRES.00052">
        <RangeCheck Comparator="EQ" SoftHard="Soft" def:ItemOID="IT.QSCS.QSTESTCD">
          <CheckValue>CSDD15</CheckValue>
        </RangeCheck>
      </def:WhereClauseDef>
      <def:WhereClauseDef OID="WC.QSCS.QSORRES.00053">
        <RangeCheck Comparator="EQ" SoftHard="Soft" def:ItemOID="IT.QSCS.QSTESTCD">
          <CheckValue>CSDD16</CheckValue>
        </RangeCheck>
      </def:WhereClauseDef>
      <def:WhereClauseDef OID="WC.QSCS.QSORRES.00054">
        <RangeCheck Comparator="EQ" SoftHard="Soft" def:ItemOID="IT.QSCS.QSTESTCD">
          <CheckValue>CSDD17</CheckValue>
        </RangeCheck>
      </def:WhereClauseDef>
      <def:WhereClauseDef OID="WC.QSCS.QSORRES.00055">
        <RangeCheck Comparator="EQ" SoftHard="Soft" def:ItemOID="IT.QSCS.QSTESTCD">
          <CheckValue>CSDD18</CheckValue>
        </RangeCheck>
      </def:WhereClauseDef>
      <def:WhereClauseDef OID="WC.QSCS.QSORRES.00056">
        <RangeCheck Comparator="EQ" SoftHard="Soft" def:ItemOID="IT.QSCS.QSTESTCD">
          <CheckValue>CSDD19</CheckValue>
        </RangeCheck>
      </def:WhereClauseDef>
      <def:WhereClauseDef OID="WC.QSCS.QSORRES.00057">
        <RangeCheck Comparator="EQ" SoftHard="Soft" def:ItemOID="IT.QSCS.QSTESTCD">
          <CheckValue>CSDDTOT</CheckValue>
        </RangeCheck>
      </def:WhereClauseDef>
      <def:WhereClauseDef OID="WC.QSMM.QSORRES.00058">
        <RangeCheck Comparator="EQ" SoftHard="Soft" def:ItemOID="IT.QSMM.QSTESTCD">
          <CheckValue>MMSEA1</CheckValue>
        </RangeCheck>
      </def:WhereClauseDef>
      <def:WhereClauseDef OID="WC.QSMM.QSORRES.00059">
        <RangeCheck Comparator="EQ" SoftHard="Soft" def:ItemOID="IT.QSMM.QSTESTCD">
          <CheckValue>MMSEA2</CheckValue>
        </RangeCheck>
      </def:WhereClauseDef>
      <def:WhereClauseDef OID="WC.QSMM.QSORRES.00060">
        <RangeCheck Comparator="EQ" SoftHard="Soft" def:ItemOID="IT.QSMM.QSTESTCD">
          <CheckValue>MMSEB</CheckValue>
        </RangeCheck>
      </def:WhereClauseDef>
      <def:WhereClauseDef OID="WC.QSMM.QSORRES.00061">
        <RangeCheck Comparator="EQ" SoftHard="Soft" def:ItemOID="IT.QSMM.QSTESTCD">
          <CheckValue>MMSEC</CheckValue>
        </RangeCheck>
      </def:WhereClauseDef>
      <def:WhereClauseDef OID="WC.QSMM.QSORRES.00062">
        <RangeCheck Comparator="EQ" SoftHard="Soft" def:ItemOID="IT.QSMM.QSTESTCD">
          <CheckValue>MMSED</CheckValue>
        </RangeCheck>
      </def:WhereClauseDef>
      <def:WhereClauseDef OID="WC.QSMM.QSORRES.00063">
        <RangeCheck Comparator="EQ" SoftHard="Soft" def:ItemOID="IT.QSMM.QSTESTCD">
          <CheckValue>MMSEET</CheckValue>
        </RangeCheck>
      </def:WhereClauseDef>
      <def:WhereClauseDef OID="WC.QSMM.QSORRES.00064">
        <RangeCheck Comparator="EQ" SoftHard="Soft" def:ItemOID="IT.QSMM.QSTESTCD">
          <CheckValue>MMSETOT</CheckValue>
        </RangeCheck>
      </def:WhereClauseDef>
      <def:WhereClauseDef OID="WC.SC.SCORRES.00065">
        <RangeCheck Comparator="EQ" SoftHard="Soft" def:ItemOID="IT.SC.SCTESTCD">
          <CheckValue>EDLEVEL</CheckValue>
        </RangeCheck>
      </def:WhereClauseDef>
      <def:WhereClauseDef OID="WC.SC.SCORRES.00066">
        <RangeCheck Comparator="EQ" SoftHard="Soft" def:ItemOID="IT.SC.SCTESTCD">
          <CheckValue>MARISTAT</CheckValue>
        </RangeCheck>
      </def:WhereClauseDef>
      <def:WhereClauseDef OID="WC.SC.SCORRES.00067">
        <RangeCheck Comparator="EQ" SoftHard="Soft" def:ItemOID="IT.SC.SCTESTCD">
          <CheckValue>SUBJINIT</CheckValue>
        </RangeCheck>
      </def:WhereClauseDef>
      <def:WhereClauseDef OID="WC.SUPPAE.QVAL.00068">
        <RangeCheck Comparator="EQ" SoftHard="Soft" def:ItemOID="IT.SUPPAE.QNAM">
          <CheckValue>AETRTEM</CheckValue>
        </RangeCheck>
      </def:WhereClauseDef>
      <def:WhereClauseDef OID="WC.SUPPAE.QVAL.00069">
        <RangeCheck Comparator="EQ" SoftHard="Soft" def:ItemOID="IT.SUPPAE.QNAM">
          <CheckValue>HLGT</CheckValue>
        </RangeCheck>
      </def:WhereClauseDef>
      <def:WhereClauseDef OID="WC.SUPPAE.QVAL.00070">
        <RangeCheck Comparator="EQ" SoftHard="Soft" def:ItemOID="IT.SUPPAE.QNAM">
          <CheckValue>HLT</CheckValue>
        </RangeCheck>
      </def:WhereClauseDef>
      <def:WhereClauseDef OID="WC.SUPPAE.QVAL.00071">
        <RangeCheck Comparator="EQ" SoftHard="Soft" def:ItemOID="IT.SUPPAE.QNAM">
          <CheckValue>LLT</CheckValue>
        </RangeCheck>
      </def:WhereClauseDef>
      <def:WhereClauseDef OID="WC.SUPPCM.QVAL.00072">
        <RangeCheck Comparator="EQ" SoftHard="Soft" def:ItemOID="IT.SUPPCM.QNAM">
          <CheckValue>ATC4CODE</CheckValue>
        </RangeCheck>
      </def:WhereClauseDef>
      <def:WhereClauseDef OID="WC.SUPPCM.QVAL.00073">
        <RangeCheck Comparator="EQ" SoftHard="Soft" def:ItemOID="IT.SUPPCM.QNAM">
          <CheckValue>ATC4TERM</CheckValue>
        </RangeCheck>
      </def:WhereClauseDef>
      <def:WhereClauseDef OID="WC.SUPPCM.QVAL.00074">
        <RangeCheck Comparator="EQ" SoftHard="Soft" def:ItemOID="IT.SUPPCM.QNAM">
          <CheckValue>CPREFCD</CheckValue>
        </RangeCheck>
      </def:WhereClauseDef>
      <def:WhereClauseDef OID="WC.SUPPCM.QVAL.00075">
        <RangeCheck Comparator="EQ" SoftHard="Soft" def:ItemOID="IT.SUPPCM.QNAM">
          <CheckValue>PDDREAS</CheckValue>
        </RangeCheck>
      </def:WhereClauseDef>
      <def:WhereClauseDef OID="WC.SUPPCM.QVAL.00076">
        <RangeCheck Comparator="EQ" SoftHard="Soft" def:ItemOID="IT.SUPPCM.QNAM">
          <CheckValue>PDRESP</CheckValue>
        </RangeCheck>
      </def:WhereClauseDef>
      <def:WhereClauseDef OID="WC.SUPPDM.QVAL.00077">
        <RangeCheck Comparator="EQ" SoftHard="Soft" def:ItemOID="IT.SUPPDM.QNAM">
          <CheckValue>RACE1</CheckValue>
        </RangeCheck>
      </def:WhereClauseDef>
      <def:WhereClauseDef OID="WC.SUPPDM.QVAL.00078">
        <RangeCheck Comparator="EQ" SoftHard="Soft" def:ItemOID="IT.SUPPDM.QNAM">
          <CheckValue>RACE2</CheckValue>
        </RangeCheck>
      </def:WhereClauseDef>
      <def:WhereClauseDef OID="WC.SUPPDM.QVAL.00079">
        <RangeCheck Comparator="EQ" SoftHard="Soft" def:ItemOID="IT.SUPPDM.QNAM">
          <CheckValue>RACE3</CheckValue>
        </RangeCheck>
      </def:WhereClauseDef>
      <def:WhereClauseDef OID="WC.SUPPDM.QVAL.00080">
        <RangeCheck Comparator="EQ" SoftHard="Soft" def:ItemOID="IT.SUPPDM.QNAM">
          <CheckValue>RACEOTH</CheckValue>
        </RangeCheck>
      </def:WhereClauseDef>
      <def:WhereClauseDef OID="WC.SUPPDM.QVAL.00081">
        <RangeCheck Comparator="EQ" SoftHard="Soft" def:ItemOID="IT.SUPPDM.QNAM">
          <CheckValue>RAND</CheckValue>
        </RangeCheck>
      </def:WhereClauseDef>
      <def:WhereClauseDef OID="WC.SUPPDM.QVAL.00082">
        <RangeCheck Comparator="EQ" SoftHard="Soft" def:ItemOID="IT.SUPPDM.QNAM">
          <CheckValue>RANDNO</CheckValue>
        </RangeCheck>
      </def:WhereClauseDef>
      <def:WhereClauseDef OID="WC.SUPPDM.QVAL.00083">
        <RangeCheck Comparator="EQ" SoftHard="Soft" def:ItemOID="IT.SUPPDM.QNAM">
          <CheckValue>SAFETY</CheckValue>
        </RangeCheck>
      </def:WhereClauseDef>
      <def:WhereClauseDef OID="WC.SUPPEG.QVAL.00084">
        <RangeCheck Comparator="EQ" SoftHard="Soft" def:ItemOID="IT.SUPPEG.QNAM">
          <CheckValue>EGCLSIG</CheckValue>
        </RangeCheck>
      </def:WhereClauseDef>
      <def:WhereClauseDef OID="WC.SUPPEX.QVAL.00085">
        <RangeCheck Comparator="EQ" SoftHard="Soft" def:ItemOID="IT.SUPPEX.QNAM">
          <CheckValue>SMNO</CheckValue>
        </RangeCheck>
      </def:WhereClauseDef>
      <def:WhereClauseDef OID="WC.SUPPLB.QVAL.00086">
        <RangeCheck Comparator="EQ" SoftHard="Soft" def:ItemOID="IT.SUPPLB.QNAM">
          <CheckValue>LBCLSIG</CheckValue>
        </RangeCheck>
      </def:WhereClauseDef>
      <def:WhereClauseDef OID="WC.SUPPQSCG.QVAL.00087">
        <RangeCheck Comparator="EQ" SoftHard="Soft" def:ItemOID="IT.SUPPQSCG.QNAM">
          <CheckValue>RTRINIT</CheckValue>
        </RangeCheck>
      </def:WhereClauseDef>
      <def:WhereClauseDef OID="WC.SUPPQSCS.QVAL.00088">
        <RangeCheck Comparator="EQ" SoftHard="Soft" def:ItemOID="IT.SUPPQSCS.QNAM">
          <CheckValue>RTRINIT</CheckValue>
        </RangeCheck>
      </def:WhereClauseDef>
      <def:WhereClauseDef OID="WC.SUPPQSMM.QVAL.00089">
        <RangeCheck Comparator="EQ" SoftHard="Soft" def:ItemOID="IT.SUPPQSMM.QNAM">
          <CheckValue>RTRINIT</CheckValue>
        </RangeCheck>
      </def:WhereClauseDef>
      <def:WhereClauseDef OID="WC.SUPPVS.QVAL.00090">
        <RangeCheck Comparator="EQ" SoftHard="Soft" def:ItemOID="IT.SUPPVS.QNAM">
          <CheckValue>VSCLSIG</CheckValue>
        </RangeCheck>
      </def:WhereClauseDef>
      <def:WhereClauseDef OID="WC.TS.TSVAL.00091">
        <RangeCheck Comparator="EQ" SoftHard="Soft" def:ItemOID="IT.TS.TSPARMCD">
          <CheckValue>ADDON</CheckValue>
        </RangeCheck>
      </def:WhereClauseDef>
      <def:WhereClauseDef OID="WC.TS.TSVAL.00092">
        <RangeCheck Comparator="EQ" SoftHard="Soft" def:ItemOID="IT.TS.TSPARMCD">
          <CheckValue>AGEMAX</CheckValue>
        </RangeCheck>
      </def:WhereClauseDef>
      <def:WhereClauseDef OID="WC.TS.TSVAL.00093">
        <RangeCheck Comparator="EQ" SoftHard="Soft" def:ItemOID="IT.TS.TSPARMCD">
          <CheckValue>AGEMIN</CheckValue>
        </RangeCheck>
      </def:WhereClauseDef>
      <def:WhereClauseDef OID="WC.TS.TSVAL.00094">
        <RangeCheck Comparator="EQ" SoftHard="Soft" def:ItemOID="IT.TS.TSPARMCD">
          <CheckValue>AGESPAN</CheckValue>
        </RangeCheck>
      </def:WhereClauseDef>
      <def:WhereClauseDef OID="WC.TS.TSVAL.00095">
        <RangeCheck Comparator="EQ" SoftHard="Soft" def:ItemOID="IT.TS.TSPARMCD">
          <CheckValue>AGEU</CheckValue>
        </RangeCheck>
      </def:WhereClauseDef>
      <def:WhereClauseDef OID="WC.TS.TSVAL.00096">
        <RangeCheck Comparator="EQ" SoftHard="Soft" def:ItemOID="IT.TS.TSPARMCD">
          <CheckValue>DOSE</CheckValue>
        </RangeCheck>
      </def:WhereClauseDef>
      <def:WhereClauseDef OID="WC.TS.TSVAL.00097">
        <RangeCheck Comparator="EQ" SoftHard="Soft" def:ItemOID="IT.TS.TSPARMCD">
          <CheckValue>DOSFRQ</CheckValue>
        </RangeCheck>
      </def:WhereClauseDef>
      <def:WhereClauseDef OID="WC.TS.TSVAL.00098">
        <RangeCheck Comparator="EQ" SoftHard="Soft" def:ItemOID="IT.TS.TSPARMCD">
          <CheckValue>DOSU</CheckValue>
        </RangeCheck>
      </def:WhereClauseDef>
      <def:WhereClauseDef OID="WC.TS.TSVAL.00099">
        <RangeCheck Comparator="EQ" SoftHard="Soft" def:ItemOID="IT.TS.TSPARMCD">
          <CheckValue>LENGTH</CheckValue>
        </RangeCheck>
      </def:WhereClauseDef>
      <def:WhereClauseDef OID="WC.TS.TSVAL.00100">
        <RangeCheck Comparator="EQ" SoftHard="Soft" def:ItemOID="IT.TS.TSPARMCD">
          <CheckValue>OBJPRIM</CheckValue>
        </RangeCheck>
      </def:WhereClauseDef>
      <def:WhereClauseDef OID="WC.TS.TSVAL.00101">
        <RangeCheck Comparator="EQ" SoftHard="Soft" def:ItemOID="IT.TS.TSPARMCD">
          <CheckValue>OBJSEC</CheckValue>
        </RangeCheck>
      </def:WhereClauseDef>
      <def:WhereClauseDef OID="WC.TS.TSVAL.00102">
        <RangeCheck Comparator="EQ" SoftHard="Soft" def:ItemOID="IT.TS.TSPARMCD">
          <CheckValue>PLANSUB</CheckValue>
        </RangeCheck>
      </def:WhereClauseDef>
      <def:WhereClauseDef OID="WC.TS.TSVAL.00103">
        <RangeCheck Comparator="EQ" SoftHard="Soft" def:ItemOID="IT.TS.TSPARMCD">
          <CheckValue>RANDOM</CheckValue>
        </RangeCheck>
      </def:WhereClauseDef>
      <def:WhereClauseDef OID="WC.TS.TSVAL.00104">
        <RangeCheck Comparator="EQ" SoftHard="Soft" def:ItemOID="IT.TS.TSPARMCD">
          <CheckValue>ROUTE</CheckValue>
        </RangeCheck>
      </def:WhereClauseDef>
      <def:WhereClauseDef OID="WC.TS.TSVAL.00105">
        <RangeCheck Comparator="EQ" SoftHard="Soft" def:ItemOID="IT.TS.TSPARMCD">
          <CheckValue>SEXPOP</CheckValue>
        </RangeCheck>
      </def:WhereClauseDef>
      <def:WhereClauseDef OID="WC.TS.TSVAL.00106">
        <RangeCheck Comparator="EQ" SoftHard="Soft" def:ItemOID="IT.TS.TSPARMCD">
          <CheckValue>SPONSOR</CheckValue>
        </RangeCheck>
      </def:WhereClauseDef>
      <def:WhereClauseDef OID="WC.TS.TSVAL.00107">
        <RangeCheck Comparator="EQ" SoftHard="Soft" def:ItemOID="IT.TS.TSPARMCD">
          <CheckValue>TBLIND</CheckValue>
        </RangeCheck>
      </def:WhereClauseDef>
      <def:WhereClauseDef OID="WC.TS.TSVAL.00108">
        <RangeCheck Comparator="EQ" SoftHard="Soft" def:ItemOID="IT.TS.TSPARMCD">
          <CheckValue>TCNTRL</CheckValue>
        </RangeCheck>
      </def:WhereClauseDef>
      <def:WhereClauseDef OID="WC.TS.TSVAL.00109">
        <RangeCheck Comparator="EQ" SoftHard="Soft" def:ItemOID="IT.TS.TSPARMCD">
          <CheckValue>TINDTP</CheckValue>
        </RangeCheck>
      </def:WhereClauseDef>
      <def:WhereClauseDef OID="WC.TS.TSVAL.00110">
        <RangeCheck Comparator="EQ" SoftHard="Soft" def:ItemOID="IT.TS.TSPARMCD">
          <CheckValue>TITLE</CheckValue>
        </RangeCheck>
      </def:WhereClauseDef>
      <def:WhereClauseDef OID="WC.TS.TSVAL.00111">
        <RangeCheck Comparator="EQ" SoftHard="Soft" def:ItemOID="IT.TS.TSPARMCD">
          <CheckValue>TPHASE</CheckValue>
        </RangeCheck>
      </def:WhereClauseDef>
      <def:WhereClauseDef OID="WC.TS.TSVAL.00112">
        <RangeCheck Comparator="EQ" SoftHard="Soft" def:ItemOID="IT.TS.TSPARMCD">
          <CheckValue>TRT</CheckValue>
        </RangeCheck>
      </def:WhereClauseDef>
      <def:WhereClauseDef OID="WC.TS.TSVAL.00113">
        <RangeCheck Comparator="EQ" SoftHard="Soft" def:ItemOID="IT.TS.TSPARMCD">
          <CheckValue>TTYPE</CheckValue>
        </RangeCheck>
      </def:WhereClauseDef>
      <def:WhereClauseDef OID="WC.VS.VSORRES.00114">
        <RangeCheck Comparator="EQ" SoftHard="Soft" def:ItemOID="IT.VS.VSTESTCD">
          <CheckValue>DIABP</CheckValue>
        </RangeCheck>
      </def:WhereClauseDef>
      <def:WhereClauseDef OID="WC.VS.VSORRES.00115">
        <RangeCheck Comparator="EQ" SoftHard="Soft" def:ItemOID="IT.VS.VSTESTCD">
          <CheckValue>FRMSIZE</CheckValue>
        </RangeCheck>
      </def:WhereClauseDef>
      <def:WhereClauseDef OID="WC.VS.VSORRES.00116">
        <RangeCheck Comparator="EQ" SoftHard="Soft" def:ItemOID="IT.VS.VSTESTCD">
          <CheckValue>HEIGHT</CheckValue>
        </RangeCheck>
      </def:WhereClauseDef>
      <def:WhereClauseDef OID="WC.VS.VSORRES.00117">
        <RangeCheck Comparator="EQ" SoftHard="Soft" def:ItemOID="IT.VS.VSTESTCD">
          <CheckValue>PULSE</CheckValue>
        </RangeCheck>
      </def:WhereClauseDef>
      <def:WhereClauseDef OID="WC.VS.VSORRES.00118">
        <RangeCheck Comparator="EQ" SoftHard="Soft" def:ItemOID="IT.VS.VSTESTCD">
          <CheckValue>SYSBP</CheckValue>
        </RangeCheck>
      </def:WhereClauseDef>
      <def:WhereClauseDef OID="WC.VS.VSORRES.00119">
        <RangeCheck Comparator="EQ" SoftHard="Soft" def:ItemOID="IT.VS.VSTESTCD">
          <CheckValue>WEIGHT</CheckValue>
        </RangeCheck>
      </def:WhereClauseDef>
      <def:WhereClauseDef OID="WC.VS.VSORRESU.00120">
        <RangeCheck Comparator="EQ" SoftHard="Soft" def:ItemOID="IT.VS.VSTESTCD">
          <CheckValue>HEIGHT</CheckValue>
        </RangeCheck>
      </def:WhereClauseDef>
      <def:WhereClauseDef OID="WC.VS.VSORRESU.00121">
        <RangeCheck Comparator="EQ" SoftHard="Soft" def:ItemOID="IT.VS.VSTESTCD">
          <CheckValue>WEIGHT</CheckValue>
        </RangeCheck>
      </def:WhereClauseDef>
      <ItemGroupDef OID="IG.TA" Name="TA" Repeating="No" IsReferenceData="Yes" SASDatasetName="TA" Domain="TA" Purpose="Tabulation" def:Class="TRIAL DESIGN" def:Structure="One record per planned Element per Arm" def:ArchiveLocationID="LF.TA">
        <Description>
          <TranslatedText xml:lang="en">Trial Arms</TranslatedText>
        </Description>
        <ItemRef ItemOID="IT.TA.STUDYID" Mandatory="Yes" OrderNumber="1" KeySequence="1"/>
        <ItemRef ItemOID="IT.TA.DOMAIN" Mandatory="Yes" OrderNumber="2"/>
        <ItemRef ItemOID="IT.TA.ARMCD" Mandatory="Yes" OrderNumber="3" KeySequence="2"/>
        <ItemRef ItemOID="IT.TA.ARM" Mandatory="Yes" OrderNumber="4"/>
        <ItemRef ItemOID="IT.TA.TAETORD" Mandatory="Yes" OrderNumber="5" KeySequence="3"/>
        <ItemRef ItemOID="IT.TA.ETCD" Mandatory="Yes" OrderNumber="6"/>
        <ItemRef ItemOID="IT.TA.ELEMENT" Mandatory="No" OrderNumber="7"/>
        <ItemRef ItemOID="IT.TA.TABRANCH" Mandatory="No" OrderNumber="8"/>
        <ItemRef ItemOID="IT.TA.TATRANS" Mandatory="No" OrderNumber="9"/>
        <ItemRef ItemOID="IT.TA.EPOCH" Mandatory="Yes" OrderNumber="10"/>
        <def:leaf ID="LF.TA" xlink:href="../transport/cdisc-sdtm-3.1.2/ta.xpt">
          <def:title>ta.xpt</def:title>
        </def:leaf>
      </ItemGroupDef>
      <ItemGroupDef OID="IG.TE" Name="TE" Repeating="No" IsReferenceData="Yes" SASDatasetName="TE" Domain="TE" Purpose="Tabulation" def:Class="TRIAL DESIGN" def:Structure="One record per planned Element" def:ArchiveLocationID="LF.TE">
        <Description>
          <TranslatedText xml:lang="en">Trial Elements</TranslatedText>
        </Description>
        <ItemRef ItemOID="IT.TE.STUDYID" Mandatory="Yes" OrderNumber="1" KeySequence="1"/>
        <ItemRef ItemOID="IT.TE.DOMAIN" Mandatory="Yes" OrderNumber="2"/>
        <ItemRef ItemOID="IT.TE.ETCD" Mandatory="Yes" OrderNumber="3" KeySequence="2"/>
        <ItemRef ItemOID="IT.TE.ELEMENT" Mandatory="Yes" OrderNumber="4"/>
        <ItemRef ItemOID="IT.TE.TESTRL" Mandatory="Yes" OrderNumber="5"/>
        <ItemRef ItemOID="IT.TE.TEDUR" Mandatory="No" OrderNumber="6"/>
        <def:leaf ID="LF.TE" xlink:href="../transport/cdisc-sdtm-3.1.2/te.xpt">
          <def:title>te.xpt</def:title>
        </def:leaf>
      </ItemGroupDef>
      <ItemGroupDef OID="IG.TI" Name="TI" Repeating="No" IsReferenceData="Yes" SASDatasetName="TI" Domain="TI" Purpose="Tabulation" def:Class="TRIAL DESIGN" def:Structure="One record per I/E criterion" def:ArchiveLocationID="LF.TI">
        <Description>
          <TranslatedText xml:lang="en">Trial Inclusion/Exclusion Criteria</TranslatedText>
        </Description>
        <ItemRef ItemOID="IT.TI.STUDYID" Mandatory="Yes" OrderNumber="1" KeySequence="1"/>
        <ItemRef ItemOID="IT.TI.DOMAIN" Mandatory="Yes" OrderNumber="2"/>
        <ItemRef ItemOID="IT.TI.IETESTCD" Mandatory="Yes" OrderNumber="3" KeySequence="2"/>
        <ItemRef ItemOID="IT.TI.IETEST" Mandatory="Yes" OrderNumber="4"/>
        <ItemRef ItemOID="IT.TI.IECAT" Mandatory="Yes" OrderNumber="5"/>
        <def:leaf ID="LF.TI" xlink:href="../transport/cdisc-sdtm-3.1.2/ti.xpt">
          <def:title>ti.xpt</def:title>
        </def:leaf>
      </ItemGroupDef>
      <ItemGroupDef OID="IG.TS" Name="TS" Repeating="No" IsReferenceData="Yes" SASDatasetName="TS" Domain="TS" Purpose="Tabulation" def:Class="TRIAL DESIGN" def:Structure="One record per trial summary parameter value" def:ArchiveLocationID="LF.TS">
        <Description>
          <TranslatedText xml:lang="en">Trial Summary</TranslatedText>
        </Description>
        <ItemRef ItemOID="IT.TS.STUDYID" Mandatory="Yes" OrderNumber="1" KeySequence="1"/>
        <ItemRef ItemOID="IT.TS.DOMAIN" Mandatory="Yes" OrderNumber="2"/>
        <ItemRef ItemOID="IT.TS.TSSEQ" Mandatory="Yes" OrderNumber="3" KeySequence="3" MethodOID="MT.TS.TSSEQ"/>
        <ItemRef ItemOID="IT.TS.TSPARMCD" Mandatory="Yes" OrderNumber="4" KeySequence="2"/>
        <ItemRef ItemOID="IT.TS.TSPARM" Mandatory="Yes" OrderNumber="5"/>
        <ItemRef ItemOID="IT.TS.TSVAL" Mandatory="Yes" OrderNumber="6"/>
        <def:leaf ID="LF.TS" xlink:href="../transport/cdisc-sdtm-3.1.2/ts.xpt">
          <def:title>ts.xpt</def:title>
        </def:leaf>
      </ItemGroupDef>
      <ItemGroupDef OID="IG.TV" Name="TV" Repeating="No" IsReferenceData="Yes" SASDatasetName="TV" Domain="TV" Purpose="Tabulation" def:Class="TRIAL DESIGN" def:Structure="One record per planned Visit per Arm" def:ArchiveLocationID="LF.TV">
        <Description>
          <TranslatedText xml:lang="en">Trial Visits</TranslatedText>
        </Description>
        <ItemRef ItemOID="IT.TV.STUDYID" Mandatory="Yes" OrderNumber="1" KeySequence="1"/>
        <ItemRef ItemOID="IT.TV.DOMAIN" Mandatory="Yes" OrderNumber="2"/>
        <ItemRef ItemOID="IT.TV.VISITNUM" Mandatory="Yes" OrderNumber="3" KeySequence="2"/>
        <ItemRef ItemOID="IT.TV.VISIT" Mandatory="No" OrderNumber="4"/>
        <ItemRef ItemOID="IT.TV.VISITDY" Mandatory="No" OrderNumber="5"/>
        <ItemRef ItemOID="IT.TV.ARMCD" Mandatory="No" OrderNumber="6" KeySequence="3"/>
        <ItemRef ItemOID="IT.TV.TVSTRL" Mandatory="Yes" OrderNumber="7"/>
        <def:leaf ID="LF.TV" xlink:href="../transport/cdisc-sdtm-3.1.2/tv.xpt">
          <def:title>tv.xpt</def:title>
        </def:leaf>
      </ItemGroupDef>
      <ItemGroupDef OID="IG.DM" Name="DM" Repeating="No" IsReferenceData="No" SASDatasetName="DM" Domain="DM" Purpose="Tabulation" def:Class="SPECIAL PURPOSE" def:Structure="One record per subject" def:CommentOID="COM.DM" def:ArchiveLocationID="LF.DM">
        <Description>
          <TranslatedText xml:lang="en">Demographics</TranslatedText>
        </Description>
        <ItemRef ItemOID="IT.DM.STUDYID" Mandatory="Yes" OrderNumber="1" KeySequence="1"/>
        <ItemRef ItemOID="IT.DM.DOMAIN" Mandatory="Yes" OrderNumber="2"/>
        <ItemRef ItemOID="IT.DM.USUBJID" Mandatory="Yes" OrderNumber="3" KeySequence="2" MethodOID="MT.DM.USUBJID"/>
        <ItemRef ItemOID="IT.DM.SUBJID" Mandatory="Yes" OrderNumber="4"/>
        <ItemRef ItemOID="IT.DM.RFSTDTC" Mandatory="No" OrderNumber="5" MethodOID="MT.DM.RFSTDTC"/>
        <ItemRef ItemOID="IT.DM.RFENDTC" Mandatory="No" OrderNumber="6" MethodOID="MT.DM.RFENDTC"/>
        <ItemRef ItemOID="IT.DM.SITEID" Mandatory="Yes" OrderNumber="7"/>
        <ItemRef ItemOID="IT.DM.BRTHDTC" Mandatory="No" OrderNumber="8"/>
        <ItemRef ItemOID="IT.DM.AGE" Mandatory="No" OrderNumber="9" MethodOID="MT.DM.AGE"/>
        <ItemRef ItemOID="IT.DM.AGEU" Mandatory="No" OrderNumber="10"/>
        <ItemRef ItemOID="IT.DM.SEX" Mandatory="Yes" OrderNumber="11"/>
        <ItemRef ItemOID="IT.DM.RACE" Mandatory="No" OrderNumber="12"/>
        <ItemRef ItemOID="IT.DM.ETHNIC" Mandatory="No" OrderNumber="13"/>
        <ItemRef ItemOID="IT.DM.ARMCD" Mandatory="Yes" OrderNumber="14"/>
        <ItemRef ItemOID="IT.DM.ARM" Mandatory="Yes" OrderNumber="15"/>
        <ItemRef ItemOID="IT.DM.COUNTRY" Mandatory="Yes" OrderNumber="16"/>
        <def:leaf ID="LF.DM" xlink:href="../transport/cdisc-sdtm-3.1.2/dm.xpt">
          <def:title>dm.xpt</def:title>
        </def:leaf>
      </ItemGroupDef>
      <ItemGroupDef OID="IG.SE" Name="SE" Repeating="Yes" IsReferenceData="No" SASDatasetName="SE" Domain="SE" Purpose="Tabulation" def:Class="SPECIAL PURPOSE" def:Structure="One record per actual Element per subject" def:ArchiveLocationID="LF.SE">
        <Description>
          <TranslatedText xml:lang="en">Subject Elements</TranslatedText>
        </Description>
        <ItemRef ItemOID="IT.SE.STUDYID" Mandatory="Yes" OrderNumber="1" KeySequence="1"/>
        <ItemRef ItemOID="IT.SE.DOMAIN" Mandatory="Yes" OrderNumber="2"/>
        <ItemRef ItemOID="IT.SE.USUBJID" Mandatory="Yes" OrderNumber="3" KeySequence="2" MethodOID="MT.SE.USUBJID"/>
        <ItemRef ItemOID="IT.SE.SESEQ" Mandatory="Yes" OrderNumber="4" MethodOID="MT.SE.SESEQ"/>
        <ItemRef ItemOID="IT.SE.ETCD" Mandatory="Yes" OrderNumber="5" KeySequence="6"/>
        <ItemRef ItemOID="IT.SE.ELEMENT" Mandatory="No" OrderNumber="6"/>
        <ItemRef ItemOID="IT.SE.SESTDTC" Mandatory="Yes" OrderNumber="7" KeySequence="3" MethodOID="MT.SE.SESTDTC"/>
        <ItemRef ItemOID="IT.SE.SEENDTC" Mandatory="No" OrderNumber="8" KeySequence="4" MethodOID="MT.SE.SEENDTC"/>
        <ItemRef ItemOID="IT.SE.TAETORD" Mandatory="No" OrderNumber="9" KeySequence="5"/>
        <def:leaf ID="LF.SE" xlink:href="../transport/cdisc-sdtm-3.1.2/se.xpt">
          <def:title>se.xpt</def:title>
        </def:leaf>
      </ItemGroupDef>
      <ItemGroupDef OID="IG.SV" Name="SV" Repeating="Yes" IsReferenceData="No" SASDatasetName="SV" Domain="SV" Purpose="Tabulation" def:Class="SPECIAL PURPOSE" def:Structure="One record per actual visit per subject" def:ArchiveLocationID="LF.SV">
        <Description>
          <TranslatedText xml:lang="en">Subject Visits</TranslatedText>
        </Description>
        <ItemRef ItemOID="IT.SV.STUDYID" Mandatory="Yes" OrderNumber="1" KeySequence="1"/>
        <ItemRef ItemOID="IT.SV.DOMAIN" Mandatory="Yes" OrderNumber="2"/>
        <ItemRef ItemOID="IT.SV.USUBJID" Mandatory="Yes" OrderNumber="3" KeySequence="2" MethodOID="MT.SV.USUBJID"/>
        <ItemRef ItemOID="IT.SV.VISITNUM" Mandatory="Yes" OrderNumber="4" KeySequence="4" MethodOID="MT.SV.VISITNUM"/>
        <ItemRef ItemOID="IT.SV.VISIT" Mandatory="No" OrderNumber="5" MethodOID="MT.SV.VISIT"/>
        <ItemRef ItemOID="IT.SV.VISITDY" Mandatory="No" OrderNumber="6"/>
        <ItemRef ItemOID="IT.SV.SVSTDTC" Mandatory="No" OrderNumber="7" KeySequence="3" MethodOID="MT.SV.SVSTDTC"/>
        <ItemRef ItemOID="IT.SV.SVENDTC" Mandatory="No" OrderNumber="8" MethodOID="MT.SV.SVENDTC"/>
        <ItemRef ItemOID="IT.SV.SVSTDY" Mandatory="No" OrderNumber="9" MethodOID="MT.SV.SVSTDY"/>
        <def:leaf ID="LF.SV" xlink:href="../transport/cdisc-sdtm-3.1.2/sv.xpt">
          <def:title>sv.xpt</def:title>
        </def:leaf>
      </ItemGroupDef>
      <ItemGroupDef OID="IG.CM" Name="CM" Repeating="Yes" IsReferenceData="No" SASDatasetName="CM" Domain="CM" Purpose="Tabulation" def:Class="INTERVENTIONS" def:Structure="One record per recorded medication occurrence or constant-dosing interval per subject" def:ArchiveLocationID="LF.CM">
        <Description>
          <TranslatedText xml:lang="en">Concomitant Medications</TranslatedText>
        </Description>
        <ItemRef ItemOID="IT.CM.STUDYID" Mandatory="Yes" OrderNumber="1" KeySequence="1"/>
        <ItemRef ItemOID="IT.CM.DOMAIN" Mandatory="Yes" OrderNumber="2"/>
        <ItemRef ItemOID="IT.CM.USUBJID" Mandatory="Yes" OrderNumber="3" KeySequence="2" MethodOID="MT.CM.USUBJID"/>
        <ItemRef ItemOID="IT.CM.CMSEQ" Mandatory="Yes" OrderNumber="4" MethodOID="MT.CM.CMSEQ"/>
        <ItemRef ItemOID="IT.CM.CMTRT" Mandatory="Yes" OrderNumber="5" KeySequence="6"/>
        <ItemRef ItemOID="IT.CM.CMMODIFY" Mandatory="No" OrderNumber="6"/>
        <ItemRef ItemOID="IT.CM.CMDECOD" Mandatory="No" OrderNumber="7"/>
        <ItemRef ItemOID="IT.CM.CMCAT" Mandatory="No" OrderNumber="8" KeySequence="5"/>
        <ItemRef ItemOID="IT.CM.CMINDC" Mandatory="No" OrderNumber="9" KeySequence="9"/>
        <ItemRef ItemOID="IT.CM.CMCLAS" Mandatory="No" OrderNumber="10"/>
        <ItemRef ItemOID="IT.CM.CMCLASCD" Mandatory="No" OrderNumber="11"/>
        <ItemRef ItemOID="IT.CM.CMDOSTXT" Mandatory="No" OrderNumber="12" KeySequence="7"/>
        <ItemRef ItemOID="IT.CM.CMDOSU" Mandatory="No" OrderNumber="13" KeySequence="8"/>
        <ItemRef ItemOID="IT.CM.CMDOSFRQ" Mandatory="No" OrderNumber="14" KeySequence="10"/>
        <ItemRef ItemOID="IT.CM.CMROUTE" Mandatory="No" OrderNumber="15"/>
        <ItemRef ItemOID="IT.CM.CMSTDTC" Mandatory="No" OrderNumber="16" KeySequence="3"/>
        <ItemRef ItemOID="IT.CM.CMENDTC" Mandatory="No" OrderNumber="17" KeySequence="4"/>
        <ItemRef ItemOID="IT.CM.CMSTDY" Mandatory="No" OrderNumber="18" MethodOID="MT.CM.CMSTDY"/>
        <ItemRef ItemOID="IT.CM.CMENDY" Mandatory="No" OrderNumber="19" MethodOID="MT.CM.CMENDY"/>
        <ItemRef ItemOID="IT.CM.CMENRF" Mandatory="No" OrderNumber="20"/>
        <def:leaf ID="LF.CM" xlink:href="../transport/cdisc-sdtm-3.1.2/cm.xpt">
          <def:title>cm.xpt</def:title>
        </def:leaf>
      </ItemGroupDef>
      <ItemGroupDef OID="IG.EX" Name="EX" Repeating="Yes" IsReferenceData="No" SASDatasetName="EX" Domain="EX" Purpose="Tabulation" def:Class="INTERVENTIONS" def:Structure="One record per constant dosing interval per subject" def:ArchiveLocationID="LF.EX">
        <Description>
          <TranslatedText xml:lang="en">Exposure</TranslatedText>
        </Description>
        <ItemRef ItemOID="IT.EX.STUDYID" Mandatory="Yes" OrderNumber="1" KeySequence="1"/>
        <ItemRef ItemOID="IT.EX.DOMAIN" Mandatory="Yes" OrderNumber="2"/>
        <ItemRef ItemOID="IT.EX.USUBJID" Mandatory="Yes" OrderNumber="3" KeySequence="2" MethodOID="MT.EX.USUBJID"/>
        <ItemRef ItemOID="IT.EX.EXSEQ" Mandatory="Yes" OrderNumber="4" MethodOID="MT.EX.EXSEQ"/>
        <ItemRef ItemOID="IT.EX.EXTRT" Mandatory="Yes" OrderNumber="5" KeySequence="5" MethodOID="MT.EX.EXTRT"/>
        <ItemRef ItemOID="IT.EX.EXDOSE" Mandatory="No" OrderNumber="6" KeySequence="6" MethodOID="MT.EX.EXDOSE"/>
        <ItemRef ItemOID="IT.EX.EXDOSU" Mandatory="No" OrderNumber="7" MethodOID="MT.EX.EXDOSU"/>
        <ItemRef ItemOID="IT.EX.EXDOSFRM" Mandatory="No" OrderNumber="8"/>
        <ItemRef ItemOID="IT.EX.EXSTDTC" Mandatory="No" OrderNumber="9" KeySequence="3"/>
        <ItemRef ItemOID="IT.EX.EXENDTC" Mandatory="No" OrderNumber="10" KeySequence="4"/>
        <ItemRef ItemOID="IT.EX.EXSTDY" Mandatory="No" OrderNumber="11" MethodOID="MT.EX.EXSTDY"/>
        <ItemRef ItemOID="IT.EX.EXENDY" Mandatory="No" OrderNumber="12" MethodOID="MT.EX.EXENDY"/>
        <def:leaf ID="LF.EX" xlink:href="../transport/cdisc-sdtm-3.1.2/ex.xpt">
          <def:title>ex.xpt</def:title>
        </def:leaf>
      </ItemGroupDef>
      <ItemGroupDef OID="IG.AE" Name="AE" Repeating="Yes" IsReferenceData="No" SASDatasetName="AE" Domain="AE" Purpose="Tabulation" def:Class="EVENTS" def:Structure="One record per adverse event per subject" def:ArchiveLocationID="LF.AE">
        <Description>
          <TranslatedText xml:lang="en">Adverse Events</TranslatedText>
        </Description>
        <ItemRef ItemOID="IT.AE.STUDYID" Mandatory="Yes" OrderNumber="1" KeySequence="1"/>
        <ItemRef ItemOID="IT.AE.DOMAIN" Mandatory="Yes" OrderNumber="2"/>
        <ItemRef ItemOID="IT.AE.USUBJID" Mandatory="Yes" OrderNumber="3" KeySequence="2" MethodOID="MT.AE.USUBJID"/>
        <ItemRef ItemOID="IT.AE.AESEQ" Mandatory="Yes" OrderNumber="4" MethodOID="MT.AE.AESEQ"/>
        <ItemRef ItemOID="IT.AE.AESPID" Mandatory="No" OrderNumber="5"/>
        <ItemRef ItemOID="IT.AE.AETERM" Mandatory="Yes" OrderNumber="6"/>
        <ItemRef ItemOID="IT.AE.AEMODIFY" Mandatory="No" OrderNumber="7"/>
        <ItemRef ItemOID="IT.AE.AEDECOD" Mandatory="Yes" OrderNumber="8" KeySequence="3"/>
        <ItemRef ItemOID="IT.AE.AEBODSYS" Mandatory="No" OrderNumber="9"/>
        <ItemRef ItemOID="IT.AE.AESEV" Mandatory="No" OrderNumber="10"/>
        <ItemRef ItemOID="IT.AE.AESER" Mandatory="No" OrderNumber="11"/>
        <ItemRef ItemOID="IT.AE.AEACN" Mandatory="No" OrderNumber="12"/>
        <ItemRef ItemOID="IT.AE.AEREL" Mandatory="No" OrderNumber="13"/>
        <ItemRef ItemOID="IT.AE.AESTDTC" Mandatory="No" OrderNumber="14" KeySequence="4"/>
        <ItemRef ItemOID="IT.AE.AEENDTC" Mandatory="No" OrderNumber="15"/>
        <ItemRef ItemOID="IT.AE.AESTDY" Mandatory="No" OrderNumber="16" MethodOID="MT.AE.AESTDY"/>
        <ItemRef ItemOID="IT.AE.AEENDY" Mandatory="No" OrderNumber="17" MethodOID="MT.AE.AEENDY"/>
        <ItemRef ItemOID="IT.AE.AEENRF" Mandatory="No" OrderNumber="18"/>
        <def:leaf ID="LF.AE" xlink:href="../transport/cdisc-sdtm-3.1.2/ae.xpt">
          <def:title>ae.xpt</def:title>
        </def:leaf>
      </ItemGroupDef>
      <ItemGroupDef OID="IG.DS" Name="DS" Repeating="Yes" IsReferenceData="No" SASDatasetName="DS" Domain="DS" Purpose="Tabulation" def:Class="EVENTS" def:Structure="One record per disposition status or protocol milestone per subject" def:ArchiveLocationID="LF.DS">
        <Description>
          <TranslatedText xml:lang="en">Disposition</TranslatedText>
        </Description>
        <ItemRef ItemOID="IT.DS.STUDYID" Mandatory="Yes" OrderNumber="1" KeySequence="1"/>
        <ItemRef ItemOID="IT.DS.DOMAIN" Mandatory="Yes" OrderNumber="2"/>
        <ItemRef ItemOID="IT.DS.USUBJID" Mandatory="Yes" OrderNumber="3" KeySequence="2" MethodOID="MT.DS.USUBJID"/>
        <ItemRef ItemOID="IT.DS.DSSEQ" Mandatory="Yes" OrderNumber="4" MethodOID="MT.DS.DSSEQ"/>
        <ItemRef ItemOID="IT.DS.DSTERM" Mandatory="Yes" OrderNumber="5"/>
        <ItemRef ItemOID="IT.DS.DSDECOD" Mandatory="Yes" OrderNumber="6" KeySequence="6"/>
        <ItemRef ItemOID="IT.DS.DSCAT" Mandatory="No" OrderNumber="7" KeySequence="5"/>
        <ItemRef ItemOID="IT.DS.EPOCH" Mandatory="No" OrderNumber="8"/>
        <ItemRef ItemOID="IT.DS.DSSTDTC" Mandatory="No" OrderNumber="9" KeySequence="4"/>
        <ItemRef ItemOID="IT.DS.DSSTDY" Mandatory="No" OrderNumber="10" KeySequence="3" MethodOID="MT.DS.DSSTDY"/>
        <def:leaf ID="LF.DS" xlink:href="../transport/cdisc-sdtm-3.1.2/ds.xpt">
          <def:title>ds.xpt</def:title>
        </def:leaf>
      </ItemGroupDef>
      <ItemGroupDef OID="IG.MH" Name="MH" Repeating="Yes" IsReferenceData="No" SASDatasetName="MH" Domain="MH" Purpose="Tabulation" def:Class="EVENTS" def:Structure="One record per medical history event per subject" def:ArchiveLocationID="LF.MH">
        <Description>
          <TranslatedText xml:lang="en">Medical History</TranslatedText>
        </Description>
        <ItemRef ItemOID="IT.MH.STUDYID" Mandatory="Yes" OrderNumber="1" KeySequence="1"/>
        <ItemRef ItemOID="IT.MH.DOMAIN" Mandatory="Yes" OrderNumber="2"/>
        <ItemRef ItemOID="IT.MH.USUBJID" Mandatory="Yes" OrderNumber="3" KeySequence="2" MethodOID="MT.MH.USUBJID"/>
        <ItemRef ItemOID="IT.MH.MHSEQ" Mandatory="Yes" OrderNumber="4" MethodOID="MT.MH.MHSEQ"/>
        <ItemRef ItemOID="IT.MH.MHTERM" Mandatory="Yes" OrderNumber="5" KeySequence="4"/>
        <ItemRef ItemOID="IT.MH.MHCAT" Mandatory="No" OrderNumber="6" KeySequence="3"/>
        <ItemRef ItemOID="IT.MH.MHPRESP" Mandatory="No" OrderNumber="7"/>
        <ItemRef ItemOID="IT.MH.MHOCCUR" Mandatory="No" OrderNumber="8"/>
        <ItemRef ItemOID="IT.MH.MHBODSYS" Mandatory="No" OrderNumber="9"/>
        <ItemRef ItemOID="IT.MH.MHDTC" Mandatory="No" OrderNumber="10" KeySequence="5"/>
        <ItemRef ItemOID="IT.MH.MHSTDTC" Mandatory="No" OrderNumber="11" KeySequence="6"/>
        <ItemRef ItemOID="IT.MH.MHENRF" Mandatory="No" OrderNumber="12"/>
        <def:leaf ID="LF.MH" xlink:href="../transport/cdisc-sdtm-3.1.2/mh.xpt">
          <def:title>mh.xpt</def:title>
        </def:leaf>
      </ItemGroupDef>
      <ItemGroupDef OID="IG.DA" Name="DA" Repeating="Yes" IsReferenceData="No" SASDatasetName="DA" Domain="DA" Purpose="Tabulation" def:Class="FINDINGS" def:Structure="One record per drug accountability finding per subject" def:ArchiveLocationID="LF.DA">
        <Description>
          <TranslatedText xml:lang="en">Drug Accountability</TranslatedText>
        </Description>
        <ItemRef ItemOID="IT.DA.STUDYID" Mandatory="Yes" OrderNumber="1" KeySequence="1"/>
        <ItemRef ItemOID="IT.DA.DOMAIN" Mandatory="Yes" OrderNumber="2"/>
        <ItemRef ItemOID="IT.DA.USUBJID" Mandatory="Yes" OrderNumber="3" KeySequence="2" MethodOID="MT.DA.USUBJID"/>
        <ItemRef ItemOID="IT.DA.DASEQ" Mandatory="Yes" OrderNumber="4" MethodOID="MT.DA.DASEQ"/>
        <ItemRef ItemOID="IT.DA.DATESTCD" Mandatory="Yes" OrderNumber="5" KeySequence="3"/>
        <ItemRef ItemOID="IT.DA.DATEST" Mandatory="Yes" OrderNumber="6"/>
        <ItemRef ItemOID="IT.DA.DAORRES" Mandatory="No" OrderNumber="7"/>
        <ItemRef ItemOID="IT.DA.DAORRESU" Mandatory="No" OrderNumber="8"/>
        <ItemRef ItemOID="IT.DA.DASTRESC" Mandatory="No" OrderNumber="9" MethodOID="MT.DA.DASTRESC"/>
        <ItemRef ItemOID="IT.DA.DASTRESN" Mandatory="No" OrderNumber="10" MethodOID="MT.DA.DASTRESN"/>
        <ItemRef ItemOID="IT.DA.DASTRESU" Mandatory="No" OrderNumber="11" MethodOID="MT.DA.DASTRESU"/>
        <ItemRef ItemOID="IT.DA.VISITNUM" Mandatory="No" OrderNumber="12" MethodOID="MT.DA.VISITNUM"/>
        <ItemRef ItemOID="IT.DA.VISIT" Mandatory="No" OrderNumber="13"/>
        <ItemRef ItemOID="IT.DA.VISITDY" Mandatory="No" OrderNumber="14"/>
        <ItemRef ItemOID="IT.DA.DADTC" Mandatory="No" OrderNumber="15" KeySequence="4"/>
        <ItemRef ItemOID="IT.DA.DADY" Mandatory="No" OrderNumber="16" MethodOID="MT.DA.DADY"/>
        <def:leaf ID="LF.DA" xlink:href="../transport/cdisc-sdtm-3.1.2/da.xpt">
          <def:title>da.xpt</def:title>
        </def:leaf>
      </ItemGroupDef>
      <ItemGroupDef OID="IG.EG" Name="EG" Repeating="Yes" IsReferenceData="No" SASDatasetName="EG" Domain="EG" Purpose="Tabulation" def:Class="FINDINGS" def:Structure="One record per ECG observation per visit per subject" def:ArchiveLocationID="LF.EG">
        <Description>
          <TranslatedText xml:lang="en">ECG Test Results</TranslatedText>
        </Description>
        <ItemRef ItemOID="IT.EG.STUDYID" Mandatory="Yes" OrderNumber="1" KeySequence="1"/>
        <ItemRef ItemOID="IT.EG.DOMAIN" Mandatory="Yes" OrderNumber="2"/>
        <ItemRef ItemOID="IT.EG.USUBJID" Mandatory="Yes" OrderNumber="3" KeySequence="2" MethodOID="MT.EG.USUBJID"/>
        <ItemRef ItemOID="IT.EG.EGSEQ" Mandatory="Yes" OrderNumber="4" MethodOID="MT.EG.EGSEQ"/>
        <ItemRef ItemOID="IT.EG.EGSPID" Mandatory="No" OrderNumber="5"/>
        <ItemRef ItemOID="IT.EG.EGTESTCD" Mandatory="Yes" OrderNumber="6" KeySequence="3"/>
        <ItemRef ItemOID="IT.EG.EGTEST" Mandatory="Yes" OrderNumber="7"/>
        <ItemRef ItemOID="IT.EG.EGPOS" Mandatory="No" OrderNumber="8"/>
        <ItemRef ItemOID="IT.EG.EGORRES" Mandatory="No" OrderNumber="9"/>
        <ItemRef ItemOID="IT.EG.EGORRESU" Mandatory="No" OrderNumber="10"/>
        <ItemRef ItemOID="IT.EG.EGSTRESC" Mandatory="No" OrderNumber="11" MethodOID="MT.EG.EGSTRESC"/>
        <ItemRef ItemOID="IT.EG.EGSTRESN" Mandatory="No" OrderNumber="12" MethodOID="MT.EG.EGSTRESN"/>
        <ItemRef ItemOID="IT.EG.EGSTRESU" Mandatory="No" OrderNumber="13"/>
        <ItemRef ItemOID="IT.EG.EGBLFL" Mandatory="No" OrderNumber="14" MethodOID="MT.EG.EGBLFL"/>
        <ItemRef ItemOID="IT.EG.EGDRVFL" Mandatory="No" OrderNumber="15" MethodOID="MT.EG.EGDRVFL"/>
        <ItemRef ItemOID="IT.EG.EGEVAL" Mandatory="No" OrderNumber="16"/>
        <ItemRef ItemOID="IT.EG.VISITNUM" Mandatory="No" OrderNumber="17" KeySequence="5"/>
        <ItemRef ItemOID="IT.EG.VISIT" Mandatory="No" OrderNumber="18"/>
        <ItemRef ItemOID="IT.EG.VISITDY" Mandatory="No" OrderNumber="19"/>
        <ItemRef ItemOID="IT.EG.EGDTC" Mandatory="No" OrderNumber="20" KeySequence="4"/>
        <ItemRef ItemOID="IT.EG.EGDY" Mandatory="No" OrderNumber="21" MethodOID="MT.EG.EGDY"/>
        <def:leaf ID="LF.EG" xlink:href="../transport/cdisc-sdtm-3.1.2/eg.xpt">
          <def:title>eg.xpt</def:title>
        </def:leaf>
      </ItemGroupDef>
      <ItemGroupDef OID="IG.IE" Name="IE" Repeating="Yes" IsReferenceData="No" SASDatasetName="IE" Domain="IE" Purpose="Tabulation" def:Class="FINDINGS" def:Structure="One record per inclusion/exclusion criterion not met per subject" def:ArchiveLocationID="LF.IE">
        <Description>
          <TranslatedText xml:lang="en">Inclusion/Exclusion Criteria Not Met</TranslatedText>
        </Description>
        <ItemRef ItemOID="IT.IE.STUDYID" Mandatory="Yes" OrderNumber="1" KeySequence="1"/>
        <ItemRef ItemOID="IT.IE.DOMAIN" Mandatory="Yes" OrderNumber="2"/>
        <ItemRef ItemOID="IT.IE.USUBJID" Mandatory="Yes" OrderNumber="3" KeySequence="2" MethodOID="MT.IE.USUBJID"/>
        <ItemRef ItemOID="IT.IE.IESEQ" Mandatory="Yes" OrderNumber="4" MethodOID="MT.IE.IESEQ"/>
        <ItemRef ItemOID="IT.IE.IETESTCD" Mandatory="Yes" OrderNumber="5" KeySequence="3"/>
        <ItemRef ItemOID="IT.IE.IETEST" Mandatory="Yes" OrderNumber="6"/>
        <ItemRef ItemOID="IT.IE.IECAT" Mandatory="Yes" OrderNumber="7"/>
        <ItemRef ItemOID="IT.IE.IEORRES" Mandatory="Yes" OrderNumber="8"/>
        <ItemRef ItemOID="IT.IE.IESTRESC" Mandatory="Yes" OrderNumber="9" MethodOID="MT.IE.IESTRESC"/>
        <ItemRef ItemOID="IT.IE.VISITNUM" Mandatory="No" OrderNumber="10"/>
        <ItemRef ItemOID="IT.IE.VISIT" Mandatory="No" OrderNumber="11"/>
        <ItemRef ItemOID="IT.IE.IEDTC" Mandatory="No" OrderNumber="12"/>
        <def:leaf ID="LF.IE" xlink:href="../transport/cdisc-sdtm-3.1.2/ie.xpt">
          <def:title>ie.xpt</def:title>
        </def:leaf>
      </ItemGroupDef>
      <ItemGroupDef OID="IG.LB" Name="LB" Repeating="Yes" IsReferenceData="No" SASDatasetName="LB" Domain="LB" Purpose="Tabulation" def:Class="FINDINGS" def:Structure="One record per analyte per visit per subject" def:ArchiveLocationID="LF.LB">
        <Description>
          <TranslatedText xml:lang="en">Laboratory Tests Results</TranslatedText>
        </Description>
        <ItemRef ItemOID="IT.LB.STUDYID" Mandatory="Yes" OrderNumber="1" KeySequence="1"/>
        <ItemRef ItemOID="IT.LB.DOMAIN" Mandatory="Yes" OrderNumber="2"/>
        <ItemRef ItemOID="IT.LB.USUBJID" Mandatory="Yes" OrderNumber="3" KeySequence="2" MethodOID="MT.LB.USUBJID"/>
        <ItemRef ItemOID="IT.LB.LBSEQ" Mandatory="Yes" OrderNumber="4" MethodOID="MT.LB.LBSEQ"/>
        <ItemRef ItemOID="IT.LB.LBREFID" Mandatory="No" OrderNumber="5"/>
        <ItemRef ItemOID="IT.LB.LBTESTCD" Mandatory="Yes" OrderNumber="6" KeySequence="5"/>
        <ItemRef ItemOID="IT.LB.LBTEST" Mandatory="Yes" OrderNumber="7"/>
        <ItemRef ItemOID="IT.LB.LBCAT" Mandatory="No" OrderNumber="8" KeySequence="3"/>
        <ItemRef ItemOID="IT.LB.LBORRES" Mandatory="No" OrderNumber="9"/>
        <ItemRef ItemOID="IT.LB.LBORRESU" Mandatory="No" OrderNumber="10"/>
        <ItemRef ItemOID="IT.LB.LBORNRLO" Mandatory="No" OrderNumber="11"/>
        <ItemRef ItemOID="IT.LB.LBORNRHI" Mandatory="No" OrderNumber="12"/>
        <ItemRef ItemOID="IT.LB.LBSTRESC" Mandatory="No" OrderNumber="13"/>
        <ItemRef ItemOID="IT.LB.LBSTRESN" Mandatory="No" OrderNumber="14"/>
        <ItemRef ItemOID="IT.LB.LBSTRESU" Mandatory="No" OrderNumber="15"/>
        <ItemRef ItemOID="IT.LB.LBSTNRLO" Mandatory="No" OrderNumber="16"/>
        <ItemRef ItemOID="IT.LB.LBSTNRHI" Mandatory="No" OrderNumber="17"/>
        <ItemRef ItemOID="IT.LB.LBSTNRC" Mandatory="No" OrderNumber="18"/>
        <ItemRef ItemOID="IT.LB.LBNRIND" Mandatory="No" OrderNumber="19" MethodOID="MT.LB.LBNRIND"/>
        <ItemRef ItemOID="IT.LB.LBSPEC" Mandatory="No" OrderNumber="20"/>
        <ItemRef ItemOID="IT.LB.LBMETHOD" Mandatory="No" OrderNumber="21" KeySequence="4"/>
        <ItemRef ItemOID="IT.LB.LBBLFL" Mandatory="No" OrderNumber="22" MethodOID="MT.LB.LBBLFL"/>
        <ItemRef ItemOID="IT.LB.LBFAST" Mandatory="No" OrderNumber="23"/>
        <ItemRef ItemOID="IT.LB.VISITNUM" Mandatory="No" OrderNumber="24" KeySequence="7"/>
        <ItemRef ItemOID="IT.LB.VISIT" Mandatory="No" OrderNumber="25"/>
        <ItemRef ItemOID="IT.LB.VISITDY" Mandatory="No" OrderNumber="26"/>
        <ItemRef ItemOID="IT.LB.LBDTC" Mandatory="No" OrderNumber="27" KeySequence="6"/>
        <ItemRef ItemOID="IT.LB.LBDY" Mandatory="No" OrderNumber="28" MethodOID="MT.LB.LBDY"/>
        <def:leaf ID="LF.LB" xlink:href="../transport/cdisc-sdtm-3.1.2/lb.xpt">
          <def:title>lb.xpt</def:title>
        </def:leaf>
      </ItemGroupDef>
      <ItemGroupDef OID="IG.PE" Name="PE" Repeating="Yes" IsReferenceData="No" SASDatasetName="PE" Domain="PE" Purpose="Tabulation" def:Class="FINDINGS" def:Structure="One record per body system or abnormality per visit per subject" def:ArchiveLocationID="LF.PE">
        <Description>
          <TranslatedText xml:lang="en">Physical Examination</TranslatedText>
        </Description>
        <ItemRef ItemOID="IT.PE.STUDYID" Mandatory="Yes" OrderNumber="1" KeySequence="1"/>
        <ItemRef ItemOID="IT.PE.DOMAIN" Mandatory="Yes" OrderNumber="2"/>
        <ItemRef ItemOID="IT.PE.USUBJID" Mandatory="Yes" OrderNumber="3" KeySequence="2" MethodOID="MT.PE.USUBJID"/>
        <ItemRef ItemOID="IT.PE.PESEQ" Mandatory="Yes" OrderNumber="4" MethodOID="MT.PE.PESEQ"/>
        <ItemRef ItemOID="IT.PE.PETESTCD" Mandatory="Yes" OrderNumber="5" KeySequence="3"/>
        <ItemRef ItemOID="IT.PE.PETEST" Mandatory="Yes" OrderNumber="6"/>
        <ItemRef ItemOID="IT.PE.PEORRES" Mandatory="No" OrderNumber="7"/>
        <ItemRef ItemOID="IT.PE.PESTRESC" Mandatory="No" OrderNumber="8" MethodOID="MT.PE.PESTRESC"/>
        <ItemRef ItemOID="IT.PE.VISITNUM" Mandatory="No" OrderNumber="9" KeySequence="5"/>
        <ItemRef ItemOID="IT.PE.VISIT" Mandatory="No" OrderNumber="10"/>
        <ItemRef ItemOID="IT.PE.VISITDY" Mandatory="No" OrderNumber="11"/>
        <ItemRef ItemOID="IT.PE.PEDTC" Mandatory="No" OrderNumber="12" KeySequence="4"/>
        <ItemRef ItemOID="IT.PE.PEDY" Mandatory="No" OrderNumber="13" MethodOID="MT.PE.PEDY"/>
        <def:leaf ID="LF.PE" xlink:href="../transport/cdisc-sdtm-3.1.2/pe.xpt">
          <def:title>pe.xpt</def:title>
        </def:leaf>
      </ItemGroupDef>
      <ItemGroupDef OID="IG.QSCG" Name="QSCG" Repeating="Yes" IsReferenceData="No" SASDatasetName="QSCG" Domain="QS" Purpose="Tabulation" def:Class="FINDINGS" def:Structure="One record per questionnaire per question per visit per subject" def:CommentOID="COM.QSCG" def:ArchiveLocationID="LF.QSCG">
        <Description>
          <TranslatedText xml:lang="en">Questionnaire-QSCG</TranslatedText>
        </Description>
        <ItemRef ItemOID="IT.QSCG.STUDYID" Mandatory="Yes" OrderNumber="1" KeySequence="1"/>
        <ItemRef ItemOID="IT.QSCG.DOMAIN" Mandatory="Yes" OrderNumber="2"/>
        <ItemRef ItemOID="IT.QSCG.USUBJID" Mandatory="Yes" OrderNumber="3" KeySequence="2" MethodOID="MT.QSCG.USUBJID"/>
        <ItemRef ItemOID="IT.QSCG.QSSEQ" Mandatory="Yes" OrderNumber="4" MethodOID="MT.QSCG.QSSEQ"/>
        <ItemRef ItemOID="IT.QSCG.QSTESTCD" Mandatory="Yes" OrderNumber="5" KeySequence="4"/>
        <ItemRef ItemOID="IT.QSCG.QSTEST" Mandatory="Yes" OrderNumber="6"/>
        <ItemRef ItemOID="IT.QSCG.QSCAT" Mandatory="Yes" OrderNumber="7" KeySequence="3"/>
        <ItemRef ItemOID="IT.QSCG.QSORRES" Mandatory="No" OrderNumber="9"/>
        <ItemRef ItemOID="IT.QSCG.QSSTRESC" Mandatory="No" OrderNumber="10" MethodOID="MT.QSCG.QSSTRESC"/>
        <ItemRef ItemOID="IT.QSCG.QSSTRESN" Mandatory="No" OrderNumber="11" MethodOID="MT.QSCG.QSSTRESN"/>
        <ItemRef ItemOID="IT.QSCG.VISITNUM" Mandatory="No" OrderNumber="13" KeySequence="6"/>
        <ItemRef ItemOID="IT.QSCG.VISIT" Mandatory="No" OrderNumber="14"/>
        <ItemRef ItemOID="IT.QSCG.VISITDY" Mandatory="No" OrderNumber="15"/>
        <ItemRef ItemOID="IT.QSCG.QSDTC" Mandatory="No" OrderNumber="16" KeySequence="5"/>
        <ItemRef ItemOID="IT.QSCG.QSDY" Mandatory="No" OrderNumber="17" MethodOID="MT.QSCG.QSDY"/>
        <Alias Context="DomainDescription" Name="Questionnaires"/>
        <def:leaf ID="LF.QSCG" xlink:href="../transport/cdisc-sdtm-3.1.2/qscg.xpt">
          <def:title>qscg.xpt</def:title>
        </def:leaf>
      </ItemGroupDef>
      <ItemGroupDef OID="IG.QSCS" Name="QSCS" Repeating="Yes" IsReferenceData="No" SASDatasetName="QSCS" Domain="QS" Purpose="Tabulation" def:Class="FINDINGS" def:Structure="One record per questionnaire per question per visit per subject" def:CommentOID="COM.QSCS" def:ArchiveLocationID="LF.QSCS">
        <Description>
          <TranslatedText xml:lang="en">Questionnaire-QSCS</TranslatedText>
        </Description>
        <ItemRef ItemOID="IT.QSCS.STUDYID" Mandatory="Yes" OrderNumber="1" KeySequence="1"/>
        <ItemRef ItemOID="IT.QSCS.DOMAIN" Mandatory="Yes" OrderNumber="2"/>
        <ItemRef ItemOID="IT.QSCS.USUBJID" Mandatory="Yes" OrderNumber="3" KeySequence="2" MethodOID="MT.QSCS.USUBJID"/>
        <ItemRef ItemOID="IT.QSCS.QSSEQ" Mandatory="Yes" OrderNumber="4" MethodOID="MT.QSCS.QSSEQ"/>
        <ItemRef ItemOID="IT.QSCS.QSTESTCD" Mandatory="Yes" OrderNumber="5" KeySequence="4"/>
        <ItemRef ItemOID="IT.QSCS.QSTEST" Mandatory="Yes" OrderNumber="6"/>
        <ItemRef ItemOID="IT.QSCS.QSCAT" Mandatory="Yes" OrderNumber="7" KeySequence="3"/>
        <ItemRef ItemOID="IT.QSCS.QSSCAT" Mandatory="No" OrderNumber="8"/>
        <ItemRef ItemOID="IT.QSCS.QSORRES" Mandatory="No" OrderNumber="9"/>
        <ItemRef ItemOID="IT.QSCS.QSSTRESC" Mandatory="No" OrderNumber="10" MethodOID="MT.QSCS.QSSTRESC"/>
        <ItemRef ItemOID="IT.QSCS.QSSTRESN" Mandatory="No" OrderNumber="11" MethodOID="MT.QSCS.QSSTRESN"/>
        <ItemRef ItemOID="IT.QSCS.QSBLFL" Mandatory="No" OrderNumber="12" MethodOID="MT.QSCS.QSBLFL"/>
        <ItemRef ItemOID="IT.QSCS.VISITNUM" Mandatory="No" OrderNumber="13" KeySequence="6"/>
        <ItemRef ItemOID="IT.QSCS.VISIT" Mandatory="No" OrderNumber="14"/>
        <ItemRef ItemOID="IT.QSCS.VISITDY" Mandatory="No" OrderNumber="15"/>
        <ItemRef ItemOID="IT.QSCS.QSDTC" Mandatory="No" OrderNumber="16" KeySequence="5"/>
        <ItemRef ItemOID="IT.QSCS.QSDY" Mandatory="No" OrderNumber="17" MethodOID="MT.QSCS.QSDY"/>
        <ItemRef ItemOID="IT.QSCS.QSEVLINT" Mandatory="No" OrderNumber="18"/>
        <Alias Context="DomainDescription" Name="Questionnaires"/>
        <def:leaf ID="LF.QSCS" xlink:href="../transport/cdisc-sdtm-3.1.2/qscs.xpt">
          <def:title>qscs.xpt</def:title>
        </def:leaf>
      </ItemGroupDef>
      <ItemGroupDef OID="IG.QSMM" Name="QSMM" Repeating="Yes" IsReferenceData="No" SASDatasetName="QSMM" Domain="QS" Purpose="Tabulation" def:Class="FINDINGS" def:Structure="One record per questionnaire per question per visit per subject" def:CommentOID="COM.QSMM" def:ArchiveLocationID="LF.QSMM">
        <Description>
          <TranslatedText xml:lang="en">Questionnaire-QSMM</TranslatedText>
        </Description>
        <ItemRef ItemOID="IT.QSMM.STUDYID" Mandatory="Yes" OrderNumber="1" KeySequence="1"/>
        <ItemRef ItemOID="IT.QSMM.DOMAIN" Mandatory="Yes" OrderNumber="2"/>
        <ItemRef ItemOID="IT.QSMM.USUBJID" Mandatory="Yes" OrderNumber="3" KeySequence="2" MethodOID="MT.QSMM.USUBJID"/>
        <ItemRef ItemOID="IT.QSMM.QSSEQ" Mandatory="Yes" OrderNumber="4" MethodOID="MT.QSMM.QSSEQ"/>
        <ItemRef ItemOID="IT.QSMM.QSTESTCD" Mandatory="Yes" OrderNumber="5" KeySequence="4"/>
        <ItemRef ItemOID="IT.QSMM.QSTEST" Mandatory="Yes" OrderNumber="6"/>
        <ItemRef ItemOID="IT.QSMM.QSCAT" Mandatory="Yes" OrderNumber="7" KeySequence="3"/>
        <ItemRef ItemOID="IT.QSMM.QSORRES" Mandatory="No" OrderNumber="9"/>
        <ItemRef ItemOID="IT.QSMM.QSSTRESC" Mandatory="No" OrderNumber="10" MethodOID="MT.QSMM.QSSTRESC"/>
        <ItemRef ItemOID="IT.QSMM.QSSTRESN" Mandatory="No" OrderNumber="11" MethodOID="MT.QSMM.QSSTRESN"/>
        <ItemRef ItemOID="IT.QSMM.QSBLFL" Mandatory="No" OrderNumber="12" MethodOID="MT.QSMM.QSBLFL"/>
        <ItemRef ItemOID="IT.QSMM.VISITNUM" Mandatory="No" OrderNumber="13" KeySequence="6"/>
        <ItemRef ItemOID="IT.QSMM.VISIT" Mandatory="No" OrderNumber="14"/>
        <ItemRef ItemOID="IT.QSMM.VISITDY" Mandatory="No" OrderNumber="15"/>
        <ItemRef ItemOID="IT.QSMM.QSDTC" Mandatory="No" OrderNumber="16" KeySequence="5"/>
        <ItemRef ItemOID="IT.QSMM.QSDY" Mandatory="No" OrderNumber="17" MethodOID="MT.QSMM.QSDY"/>
        <Alias Context="DomainDescription" Name="Questionnaires"/>
        <def:leaf ID="LF.QSMM" xlink:href="../transport/cdisc-sdtm-3.1.2/qsmm.xpt">
          <def:title>qsmm.xpt</def:title>
        </def:leaf>
      </ItemGroupDef>
      <ItemGroupDef OID="IG.SC" Name="SC" Repeating="Yes" IsReferenceData="No" SASDatasetName="SC" Domain="SC" Purpose="Tabulation" def:Class="FINDINGS" def:Structure="One record per characteristic per subject" def:ArchiveLocationID="LF.SC">
        <Description>
          <TranslatedText xml:lang="en">Subject Characteristics</TranslatedText>
        </Description>
        <ItemRef ItemOID="IT.SC.STUDYID" Mandatory="Yes" OrderNumber="1" KeySequence="1"/>
        <ItemRef ItemOID="IT.SC.DOMAIN" Mandatory="Yes" OrderNumber="2"/>
        <ItemRef ItemOID="IT.SC.USUBJID" Mandatory="Yes" OrderNumber="3" KeySequence="2" MethodOID="MT.SC.USUBJID"/>
        <ItemRef ItemOID="IT.SC.SCSEQ" Mandatory="Yes" OrderNumber="4" MethodOID="MT.SC.SCSEQ"/>
        <ItemRef ItemOID="IT.SC.SCTESTCD" Mandatory="Yes" OrderNumber="5" KeySequence="3"/>
        <ItemRef ItemOID="IT.SC.SCTEST" Mandatory="Yes" OrderNumber="6"/>
        <ItemRef ItemOID="IT.SC.SCORRES" Mandatory="No" OrderNumber="7"/>
        <ItemRef ItemOID="IT.SC.SCSTRESC" Mandatory="No" OrderNumber="8" MethodOID="MT.SC.SCSTRESC"/>
        <ItemRef ItemOID="IT.SC.SCDTC" Mandatory="No" OrderNumber="9"/>
        <ItemRef ItemOID="IT.SC.SCDY" Mandatory="No" OrderNumber="10" MethodOID="MT.SC.SCDY"/>
        <def:leaf ID="LF.SC" xlink:href="../transport/cdisc-sdtm-3.1.2/sc.xpt">
          <def:title>sc.xpt</def:title>
        </def:leaf>
      </ItemGroupDef>
      <ItemGroupDef OID="IG.VS" Name="VS" Repeating="Yes" IsReferenceData="No" SASDatasetName="VS" Domain="VS" Purpose="Tabulation" def:Class="FINDINGS" def:Structure="One record per vital sign measurement per visit per subject" def:ArchiveLocationID="LF.VS">
        <Description>
          <TranslatedText xml:lang="en">Vital Signs</TranslatedText>
        </Description>
        <ItemRef ItemOID="IT.VS.STUDYID" Mandatory="Yes" OrderNumber="1" KeySequence="1"/>
        <ItemRef ItemOID="IT.VS.DOMAIN" Mandatory="Yes" OrderNumber="2"/>
        <ItemRef ItemOID="IT.VS.USUBJID" Mandatory="Yes" OrderNumber="3" KeySequence="2" MethodOID="MT.VS.USUBJID"/>
        <ItemRef ItemOID="IT.VS.VSSEQ" Mandatory="Yes" OrderNumber="4" MethodOID="MT.VS.VSSEQ"/>
        <ItemRef ItemOID="IT.VS.VSTESTCD" Mandatory="Yes" OrderNumber="5" KeySequence="3"/>
        <ItemRef ItemOID="IT.VS.VSTEST" Mandatory="Yes" OrderNumber="6"/>
        <ItemRef ItemOID="IT.VS.VSPOS" Mandatory="No" OrderNumber="7" KeySequence="6"/>
        <ItemRef ItemOID="IT.VS.VSORRES" Mandatory="No" OrderNumber="8"/>
        <ItemRef ItemOID="IT.VS.VSORRESU" Mandatory="No" OrderNumber="9"/>
        <ItemRef ItemOID="IT.VS.VSSTRESC" Mandatory="No" OrderNumber="10" MethodOID="MT.VS.VSSTRESC"/>
        <ItemRef ItemOID="IT.VS.VSSTRESN" Mandatory="No" OrderNumber="11" MethodOID="MT.VS.VSSTRESN"/>
        <ItemRef ItemOID="IT.VS.VSSTRESU" Mandatory="No" OrderNumber="12"/>
        <ItemRef ItemOID="IT.VS.VSBLFL" Mandatory="No" OrderNumber="13" MethodOID="MT.VS.VSBLFL"/>
        <ItemRef ItemOID="IT.VS.VISITNUM" Mandatory="No" OrderNumber="14" KeySequence="5"/>
        <ItemRef ItemOID="IT.VS.VISIT" Mandatory="No" OrderNumber="15"/>
        <ItemRef ItemOID="IT.VS.VISITDY" Mandatory="No" OrderNumber="16"/>
        <ItemRef ItemOID="IT.VS.VSDTC" Mandatory="No" OrderNumber="17" KeySequence="4"/>
        <ItemRef ItemOID="IT.VS.VSDY" Mandatory="No" OrderNumber="18" MethodOID="MT.VS.VSDY"/>
        <def:leaf ID="LF.VS" xlink:href="../transport/cdisc-sdtm-3.1.2/vs.xpt">
          <def:title>vs.xpt</def:title>
        </def:leaf>
      </ItemGroupDef>
      <ItemGroupDef OID="IG.RELREC" Name="RELREC" Repeating="Yes" IsReferenceData="No" SASDatasetName="RELREC" Purpose="Tabulation" def:Class="RELATIONSHIP" def:Structure="One record per related record, group of records or dataset" def:ArchiveLocationID="LF.RELREC">
        <Description>
          <TranslatedText xml:lang="en">Related Records</TranslatedText>
        </Description>
        <ItemRef ItemOID="IT.RELREC.STUDYID" Mandatory="Yes" OrderNumber="1" KeySequence="1"/>
        <ItemRef ItemOID="IT.RELREC.RDOMAIN" Mandatory="Yes" OrderNumber="2" KeySequence="2" MethodOID="MT.RELREC.RDOMAIN"/>
        <ItemRef ItemOID="IT.RELREC.USUBJID" Mandatory="No" OrderNumber="3" KeySequence="3" MethodOID="MT.RELREC.USUBJID"/>
        <ItemRef ItemOID="IT.RELREC.IDVAR" Mandatory="Yes" OrderNumber="4" KeySequence="4"/>
        <ItemRef ItemOID="IT.RELREC.IDVARVAL" Mandatory="No" OrderNumber="5" KeySequence="5"/>
        <ItemRef ItemOID="IT.RELREC.RELTYPE" Mandatory="No" OrderNumber="6"/>
        <ItemRef ItemOID="IT.RELREC.RELID" Mandatory="Yes" OrderNumber="7" KeySequence="6" MethodOID="MT.RELREC.RELID"/>
        <def:leaf ID="LF.RELREC" xlink:href="../transport/cdisc-sdtm-3.1.2/relrec.xpt">
          <def:title>relrec.xpt</def:title>
        </def:leaf>
      </ItemGroupDef>
      <ItemGroupDef OID="IG.SUPPAE" Name="SUPPAE" Repeating="Yes" IsReferenceData="No" SASDatasetName="SUPPAE" Domain="AE" Purpose="Tabulation" def:Class="RELATIONSHIP" def:Structure="One record per IDVAR, IDVARVAL, and QNAM value per subject" def:ArchiveLocationID="LF.SUPPAE">
        <Description>
          <TranslatedText xml:lang="en">Supplemental Qualifiers for AE</TranslatedText>
        </Description>
        <ItemRef ItemOID="IT.SUPPAE.STUDYID" Mandatory="Yes" OrderNumber="1" KeySequence="1"/>
        <ItemRef ItemOID="IT.SUPPAE.RDOMAIN" Mandatory="Yes" OrderNumber="2" KeySequence="2" MethodOID="MT.SUPPAE.RDOMAIN"/>
        <ItemRef ItemOID="IT.SUPPAE.USUBJID" Mandatory="Yes" OrderNumber="3" KeySequence="3" MethodOID="MT.SUPPAE.USUBJID"/>
        <ItemRef ItemOID="IT.SUPPAE.IDVAR" Mandatory="No" OrderNumber="4" KeySequence="4"/>
        <ItemRef ItemOID="IT.SUPPAE.IDVARVAL" Mandatory="No" OrderNumber="5" KeySequence="5"/>
        <ItemRef ItemOID="IT.SUPPAE.QNAM" Mandatory="Yes" OrderNumber="6" KeySequence="6"/>
        <ItemRef ItemOID="IT.SUPPAE.QLABEL" Mandatory="Yes" OrderNumber="7"/>
        <ItemRef ItemOID="IT.SUPPAE.QVAL" Mandatory="Yes" OrderNumber="8"/>
        <ItemRef ItemOID="IT.SUPPAE.QORIG" Mandatory="Yes" OrderNumber="9"/>
        <ItemRef ItemOID="IT.SUPPAE.QEVAL" Mandatory="No" OrderNumber="10"/>
        <Alias Context="DomainDescription" Name="Adverse Events"/>
        <def:leaf ID="LF.SUPPAE" xlink:href="../transport/cdisc-sdtm-3.1.2/suppae.xpt">
          <def:title>suppae.xpt</def:title>
        </def:leaf>
      </ItemGroupDef>
      <ItemGroupDef OID="IG.SUPPCM" Name="SUPPCM" Repeating="Yes" IsReferenceData="No" SASDatasetName="SUPPCM" Domain="CM" Purpose="Tabulation" def:Class="RELATIONSHIP" def:Structure="One record per IDVAR, IDVARVAL, and QNAM value per subject" def:ArchiveLocationID="LF.SUPPCM">
        <Description>
          <TranslatedText xml:lang="en">Supplemental Qualifiers for CM</TranslatedText>
        </Description>
        <ItemRef ItemOID="IT.SUPPCM.STUDYID" Mandatory="Yes" OrderNumber="1" KeySequence="1"/>
        <ItemRef ItemOID="IT.SUPPCM.RDOMAIN" Mandatory="Yes" OrderNumber="2" KeySequence="2" MethodOID="MT.SUPPCM.RDOMAIN"/>
        <ItemRef ItemOID="IT.SUPPCM.USUBJID" Mandatory="Yes" OrderNumber="3" KeySequence="3" MethodOID="MT.SUPPCM.USUBJID"/>
        <ItemRef ItemOID="IT.SUPPCM.IDVAR" Mandatory="No" OrderNumber="4" KeySequence="4"/>
        <ItemRef ItemOID="IT.SUPPCM.IDVARVAL" Mandatory="No" OrderNumber="5" KeySequence="5"/>
        <ItemRef ItemOID="IT.SUPPCM.QNAM" Mandatory="Yes" OrderNumber="6" KeySequence="6"/>
        <ItemRef ItemOID="IT.SUPPCM.QLABEL" Mandatory="Yes" OrderNumber="7"/>
        <ItemRef ItemOID="IT.SUPPCM.QVAL" Mandatory="Yes" OrderNumber="8"/>
        <ItemRef ItemOID="IT.SUPPCM.QORIG" Mandatory="Yes" OrderNumber="9"/>
        <ItemRef ItemOID="IT.SUPPCM.QEVAL" Mandatory="No" OrderNumber="10"/>
        <Alias Context="DomainDescription" Name="Concomitant Medications"/>
        <def:leaf ID="LF.SUPPCM" xlink:href="../transport/cdisc-sdtm-3.1.2/suppcm.xpt">
          <def:title>suppcm.xpt</def:title>
        </def:leaf>
      </ItemGroupDef>
      <ItemGroupDef OID="IG.SUPPDM" Name="SUPPDM" Repeating="Yes" IsReferenceData="No" SASDatasetName="SUPPDM" Domain="DM" Purpose="Tabulation" def:Class="RELATIONSHIP" def:Structure="One record per IDVAR, IDVARVAL, and QNAM value per subject" def:ArchiveLocationID="LF.SUPPDM">
        <Description>
          <TranslatedText xml:lang="en">Supplemental Qualifiers for DM</TranslatedText>
        </Description>
        <ItemRef ItemOID="IT.SUPPDM.STUDYID" Mandatory="Yes" OrderNumber="1" KeySequence="1"/>
        <ItemRef ItemOID="IT.SUPPDM.RDOMAIN" Mandatory="Yes" OrderNumber="2" KeySequence="2" MethodOID="MT.SUPPDM.RDOMAIN"/>
        <ItemRef ItemOID="IT.SUPPDM.USUBJID" Mandatory="Yes" OrderNumber="3" KeySequence="3" MethodOID="MT.SUPPDM.USUBJID"/>
        <ItemRef ItemOID="IT.SUPPDM.IDVAR" Mandatory="No" OrderNumber="4" KeySequence="4"/>
        <ItemRef ItemOID="IT.SUPPDM.IDVARVAL" Mandatory="No" OrderNumber="5" KeySequence="5"/>
        <ItemRef ItemOID="IT.SUPPDM.QNAM" Mandatory="Yes" OrderNumber="6" KeySequence="6"/>
        <ItemRef ItemOID="IT.SUPPDM.QLABEL" Mandatory="Yes" OrderNumber="7"/>
        <ItemRef ItemOID="IT.SUPPDM.QVAL" Mandatory="Yes" OrderNumber="8"/>
        <ItemRef ItemOID="IT.SUPPDM.QORIG" Mandatory="Yes" OrderNumber="9"/>
        <ItemRef ItemOID="IT.SUPPDM.QEVAL" Mandatory="No" OrderNumber="10"/>
        <Alias Context="DomainDescription" Name="Demographics"/>
        <def:leaf ID="LF.SUPPDM" xlink:href="../transport/cdisc-sdtm-3.1.2/suppdm.xpt">
          <def:title>suppdm.xpt</def:title>
        </def:leaf>
      </ItemGroupDef>
      <ItemGroupDef OID="IG.SUPPEG" Name="SUPPEG" Repeating="Yes" IsReferenceData="No" SASDatasetName="SUPPEG" Domain="EG" Purpose="Tabulation" def:Class="RELATIONSHIP" def:Structure="One record per IDVAR, IDVARVAL, and QNAM value per subject" def:ArchiveLocationID="LF.SUPPEG">
        <Description>
          <TranslatedText xml:lang="en">Supplemental Qualifiers for EG</TranslatedText>
        </Description>
        <ItemRef ItemOID="IT.SUPPEG.STUDYID" Mandatory="Yes" OrderNumber="1" KeySequence="1"/>
        <ItemRef ItemOID="IT.SUPPEG.RDOMAIN" Mandatory="Yes" OrderNumber="2" KeySequence="2" MethodOID="MT.SUPPEG.RDOMAIN"/>
        <ItemRef ItemOID="IT.SUPPEG.USUBJID" Mandatory="Yes" OrderNumber="3" KeySequence="3" MethodOID="MT.SUPPEG.USUBJID"/>
        <ItemRef ItemOID="IT.SUPPEG.IDVAR" Mandatory="No" OrderNumber="4" KeySequence="4"/>
        <ItemRef ItemOID="IT.SUPPEG.IDVARVAL" Mandatory="No" OrderNumber="5" KeySequence="5"/>
        <ItemRef ItemOID="IT.SUPPEG.QNAM" Mandatory="Yes" OrderNumber="6" KeySequence="6"/>
        <ItemRef ItemOID="IT.SUPPEG.QLABEL" Mandatory="Yes" OrderNumber="7"/>
        <ItemRef ItemOID="IT.SUPPEG.QVAL" Mandatory="Yes" OrderNumber="8"/>
        <ItemRef ItemOID="IT.SUPPEG.QORIG" Mandatory="Yes" OrderNumber="9"/>
        <ItemRef ItemOID="IT.SUPPEG.QEVAL" Mandatory="No" OrderNumber="10"/>
        <Alias Context="DomainDescription" Name="ECG Test Results"/>
        <def:leaf ID="LF.SUPPEG" xlink:href="../transport/cdisc-sdtm-3.1.2/suppeg.xpt">
          <def:title>suppeg.xpt</def:title>
        </def:leaf>
      </ItemGroupDef>
      <ItemGroupDef OID="IG.SUPPEX" Name="SUPPEX" Repeating="Yes" IsReferenceData="No" SASDatasetName="SUPPEX" Domain="EX" Purpose="Tabulation" def:Class="RELATIONSHIP" def:Structure="One record per IDVAR, IDVARVAL, and QNAM value per subject" def:ArchiveLocationID="LF.SUPPEX">
        <Description>
          <TranslatedText xml:lang="en">Supplemental Qualifiers for EX</TranslatedText>
        </Description>
        <ItemRef ItemOID="IT.SUPPEX.STUDYID" Mandatory="Yes" OrderNumber="1" KeySequence="1"/>
        <ItemRef ItemOID="IT.SUPPEX.RDOMAIN" Mandatory="Yes" OrderNumber="2" KeySequence="2" MethodOID="MT.SUPPEX.RDOMAIN"/>
        <ItemRef ItemOID="IT.SUPPEX.USUBJID" Mandatory="Yes" OrderNumber="3" KeySequence="3" MethodOID="MT.SUPPEX.USUBJID"/>
        <ItemRef ItemOID="IT.SUPPEX.IDVAR" Mandatory="No" OrderNumber="4" KeySequence="4"/>
        <ItemRef ItemOID="IT.SUPPEX.IDVARVAL" Mandatory="No" OrderNumber="5" KeySequence="5"/>
        <ItemRef ItemOID="IT.SUPPEX.QNAM" Mandatory="Yes" OrderNumber="6" KeySequence="6"/>
        <ItemRef ItemOID="IT.SUPPEX.QLABEL" Mandatory="Yes" OrderNumber="7"/>
        <ItemRef ItemOID="IT.SUPPEX.QVAL" Mandatory="Yes" OrderNumber="8"/>
        <ItemRef ItemOID="IT.SUPPEX.QORIG" Mandatory="Yes" OrderNumber="9"/>
        <ItemRef ItemOID="IT.SUPPEX.QEVAL" Mandatory="No" OrderNumber="10"/>
        <Alias Context="DomainDescription" Name="Exposure"/>
        <def:leaf ID="LF.SUPPEX" xlink:href="../transport/cdisc-sdtm-3.1.2/suppex.xpt">
          <def:title>suppex.xpt</def:title>
        </def:leaf>
      </ItemGroupDef>
      <ItemGroupDef OID="IG.SUPPLB" Name="SUPPLB" Repeating="Yes" IsReferenceData="No" SASDatasetName="SUPPLB" Domain="LB" Purpose="Tabulation" def:Class="RELATIONSHIP" def:Structure="One record per IDVAR, IDVARVAL, and QNAM value per subject" def:ArchiveLocationID="LF.SUPPLB">
        <Description>
          <TranslatedText xml:lang="en">Supplemental Qualifiers for LB</TranslatedText>
        </Description>
        <ItemRef ItemOID="IT.SUPPLB.STUDYID" Mandatory="Yes" OrderNumber="1" KeySequence="1"/>
        <ItemRef ItemOID="IT.SUPPLB.RDOMAIN" Mandatory="Yes" OrderNumber="2" KeySequence="2" MethodOID="MT.SUPPLB.RDOMAIN"/>
        <ItemRef ItemOID="IT.SUPPLB.USUBJID" Mandatory="Yes" OrderNumber="3" KeySequence="3" MethodOID="MT.SUPPLB.USUBJID"/>
        <ItemRef ItemOID="IT.SUPPLB.IDVAR" Mandatory="No" OrderNumber="4" KeySequence="4"/>
        <ItemRef ItemOID="IT.SUPPLB.IDVARVAL" Mandatory="No" OrderNumber="5" KeySequence="5"/>
        <ItemRef ItemOID="IT.SUPPLB.QNAM" Mandatory="Yes" OrderNumber="6" KeySequence="6"/>
        <ItemRef ItemOID="IT.SUPPLB.QLABEL" Mandatory="Yes" OrderNumber="7"/>
        <ItemRef ItemOID="IT.SUPPLB.QVAL" Mandatory="Yes" OrderNumber="8"/>
        <ItemRef ItemOID="IT.SUPPLB.QORIG" Mandatory="Yes" OrderNumber="9"/>
        <ItemRef ItemOID="IT.SUPPLB.QEVAL" Mandatory="No" OrderNumber="10"/>
        <Alias Context="DomainDescription" Name="Laboratory Tests Results"/>
        <def:leaf ID="LF.SUPPLB" xlink:href="../transport/cdisc-sdtm-3.1.2/supplb.xpt">
          <def:title>supplb.xpt</def:title>
        </def:leaf>
      </ItemGroupDef>
      <ItemGroupDef OID="IG.SUPPQSCG" Name="SUPPQSCG" Repeating="Yes" IsReferenceData="No" SASDatasetName="SUPPQSCG" Domain="QS" Purpose="Tabulation" def:Class="RELATIONSHIP" def:Structure="One record per IDVAR, IDVARVAL, and QNAM value per subject" def:ArchiveLocationID="LF.SUPPQSCG">
        <Description>
          <TranslatedText xml:lang="en">Supplemental Qualifiers for QSCG</TranslatedText>
        </Description>
        <ItemRef ItemOID="IT.SUPPQSCG.STUDYID" Mandatory="Yes" OrderNumber="1" KeySequence="1"/>
        <ItemRef ItemOID="IT.SUPPQSCG.RDOMAIN" Mandatory="Yes" OrderNumber="2" KeySequence="2" MethodOID="MT.SUPPQSCG.RDOMAIN"/>
        <ItemRef ItemOID="IT.SUPPQSCG.USUBJID" Mandatory="Yes" OrderNumber="3" KeySequence="3" MethodOID="MT.SUPPQSCG.USUBJID"/>
        <ItemRef ItemOID="IT.SUPPQSCG.IDVAR" Mandatory="No" OrderNumber="4" KeySequence="4"/>
        <ItemRef ItemOID="IT.SUPPQSCG.IDVARVAL" Mandatory="No" OrderNumber="5" KeySequence="5"/>
        <ItemRef ItemOID="IT.SUPPQSCG.QNAM" Mandatory="Yes" OrderNumber="6" KeySequence="6"/>
        <ItemRef ItemOID="IT.SUPPQSCG.QLABEL" Mandatory="Yes" OrderNumber="7"/>
        <ItemRef ItemOID="IT.SUPPQSCG.QVAL" Mandatory="Yes" OrderNumber="8"/>
        <ItemRef ItemOID="IT.SUPPQSCG.QORIG" Mandatory="Yes" OrderNumber="9"/>
        <ItemRef ItemOID="IT.SUPPQSCG.QEVAL" Mandatory="No" OrderNumber="10"/>
        <Alias Context="DomainDescription" Name="Questionnaires"/>
        <def:leaf ID="LF.SUPPQSCG" xlink:href="../transport/cdisc-sdtm-3.1.2/suppqscg.xpt">
          <def:title>suppqscg.xpt</def:title>
        </def:leaf>
      </ItemGroupDef>
      <ItemGroupDef OID="IG.SUPPQSCS" Name="SUPPQSCS" Repeating="Yes" IsReferenceData="No" SASDatasetName="SUPPQSCS" Domain="QS" Purpose="Tabulation" def:Class="RELATIONSHIP" def:Structure="One record per IDVAR, IDVARVAL, and QNAM value per subject" def:ArchiveLocationID="LF.SUPPQSCS">
        <Description>
          <TranslatedText xml:lang="en">Supplemental Qualifiers for QSCS</TranslatedText>
        </Description>
        <ItemRef ItemOID="IT.SUPPQSCS.STUDYID" Mandatory="Yes" OrderNumber="1" KeySequence="1"/>
        <ItemRef ItemOID="IT.SUPPQSCS.RDOMAIN" Mandatory="Yes" OrderNumber="2" KeySequence="2" MethodOID="MT.SUPPQSCS.RDOMAIN"/>
        <ItemRef ItemOID="IT.SUPPQSCS.USUBJID" Mandatory="Yes" OrderNumber="3" KeySequence="3" MethodOID="MT.SUPPQSCS.USUBJID"/>
        <ItemRef ItemOID="IT.SUPPQSCS.IDVAR" Mandatory="No" OrderNumber="4" KeySequence="4"/>
        <ItemRef ItemOID="IT.SUPPQSCS.IDVARVAL" Mandatory="No" OrderNumber="5" KeySequence="5"/>
        <ItemRef ItemOID="IT.SUPPQSCS.QNAM" Mandatory="Yes" OrderNumber="6" KeySequence="6"/>
        <ItemRef ItemOID="IT.SUPPQSCS.QLABEL" Mandatory="Yes" OrderNumber="7"/>
        <ItemRef ItemOID="IT.SUPPQSCS.QVAL" Mandatory="Yes" OrderNumber="8"/>
        <ItemRef ItemOID="IT.SUPPQSCS.QORIG" Mandatory="Yes" OrderNumber="9"/>
        <ItemRef ItemOID="IT.SUPPQSCS.QEVAL" Mandatory="No" OrderNumber="10"/>
        <Alias Context="DomainDescription" Name="Questionnaires"/>
        <def:leaf ID="LF.SUPPQSCS" xlink:href="../transport/cdisc-sdtm-3.1.2/suppqscs.xpt">
          <def:title>suppqscs.xpt</def:title>
        </def:leaf>
      </ItemGroupDef>
      <ItemGroupDef OID="IG.SUPPQSMM" Name="SUPPQSMM" Repeating="Yes" IsReferenceData="No" SASDatasetName="SUPPQSMM" Domain="QS" Purpose="Tabulation" def:Class="RELATIONSHIP" def:Structure="One record per IDVAR, IDVARVAL, and QNAM value per subject" def:ArchiveLocationID="LF.SUPPQSMM">
        <Description>
          <TranslatedText xml:lang="en">Supplemental Qualifiers for QSMM</TranslatedText>
        </Description>
        <ItemRef ItemOID="IT.SUPPQSMM.STUDYID" Mandatory="Yes" OrderNumber="1" KeySequence="1"/>
        <ItemRef ItemOID="IT.SUPPQSMM.RDOMAIN" Mandatory="Yes" OrderNumber="2" KeySequence="2" MethodOID="MT.SUPPQSMM.RDOMAIN"/>
        <ItemRef ItemOID="IT.SUPPQSMM.USUBJID" Mandatory="Yes" OrderNumber="3" KeySequence="3" MethodOID="MT.SUPPQSMM.USUBJID"/>
        <ItemRef ItemOID="IT.SUPPQSMM.IDVAR" Mandatory="No" OrderNumber="4" KeySequence="4"/>
        <ItemRef ItemOID="IT.SUPPQSMM.IDVARVAL" Mandatory="No" OrderNumber="5" KeySequence="5"/>
        <ItemRef ItemOID="IT.SUPPQSMM.QNAM" Mandatory="Yes" OrderNumber="6" KeySequence="6"/>
        <ItemRef ItemOID="IT.SUPPQSMM.QLABEL" Mandatory="Yes" OrderNumber="7"/>
        <ItemRef ItemOID="IT.SUPPQSMM.QVAL" Mandatory="Yes" OrderNumber="8"/>
        <ItemRef ItemOID="IT.SUPPQSMM.QORIG" Mandatory="Yes" OrderNumber="9"/>
        <ItemRef ItemOID="IT.SUPPQSMM.QEVAL" Mandatory="No" OrderNumber="10"/>
        <Alias Context="DomainDescription" Name="Questionnaires"/>
        <def:leaf ID="LF.SUPPQSMM" xlink:href="../transport/cdisc-sdtm-3.1.2/suppqsmm.xpt">
          <def:title>suppqsmm.xpt</def:title>
        </def:leaf>
      </ItemGroupDef>
      <ItemGroupDef OID="IG.SUPPVS" Name="SUPPVS" Repeating="Yes" IsReferenceData="No" SASDatasetName="SUPPVS" Domain="VS" Purpose="Tabulation" def:Class="RELATIONSHIP" def:Structure="One record per IDVAR, IDVARVAL, and QNAM value per subject" def:ArchiveLocationID="LF.SUPPVS">
        <Description>
          <TranslatedText xml:lang="en">Supplemental Qualifiers for VS</TranslatedText>
        </Description>
        <ItemRef ItemOID="IT.SUPPVS.STUDYID" Mandatory="Yes" OrderNumber="1" KeySequence="1"/>
        <ItemRef ItemOID="IT.SUPPVS.RDOMAIN" Mandatory="Yes" OrderNumber="2" KeySequence="2" MethodOID="MT.SUPPVS.RDOMAIN"/>
        <ItemRef ItemOID="IT.SUPPVS.USUBJID" Mandatory="Yes" OrderNumber="3" KeySequence="3" MethodOID="MT.SUPPVS.USUBJID"/>
        <ItemRef ItemOID="IT.SUPPVS.IDVAR" Mandatory="No" OrderNumber="4" KeySequence="4"/>
        <ItemRef ItemOID="IT.SUPPVS.IDVARVAL" Mandatory="No" OrderNumber="5" KeySequence="5"/>
        <ItemRef ItemOID="IT.SUPPVS.QNAM" Mandatory="Yes" OrderNumber="6" KeySequence="6"/>
        <ItemRef ItemOID="IT.SUPPVS.QLABEL" Mandatory="Yes" OrderNumber="7"/>
        <ItemRef ItemOID="IT.SUPPVS.QVAL" Mandatory="Yes" OrderNumber="8"/>
        <ItemRef ItemOID="IT.SUPPVS.QORIG" Mandatory="Yes" OrderNumber="9"/>
        <ItemRef ItemOID="IT.SUPPVS.QEVAL" Mandatory="No" OrderNumber="10"/>
        <Alias Context="DomainDescription" Name="Vital Signs"/>
        <def:leaf ID="LF.SUPPVS" xlink:href="../transport/cdisc-sdtm-3.1.2/suppvs.xpt">
          <def:title>suppvs.xpt</def:title>
        </def:leaf>
      </ItemGroupDef>
      <ItemDef OID="IT.AE.AEACN" Name="AEACN" DataType="text" Length="30" SASFieldName="AEACN">
        <Description>
          <TranslatedText xml:lang="en">Action Taken with Study Treatment</TranslatedText>
        </Description>
        <CodeListRef CodeListOID="CL.ACN"/>
        <def:Origin Type="CRF">
          <def:DocumentRef leafID="LF.acrf.001">
            <def:PDFPageRef PageRefs="21" Type="PhysicalRef"/>
          </def:DocumentRef>
        </def:Origin>
      </ItemDef>
      <ItemDef OID="IT.AE.AEBODSYS" Name="AEBODSYS" DataType="text" Length="52" SASFieldName="AEBODSYS">
        <Description>
          <TranslatedText xml:lang="en">Body System or Organ Class</TranslatedText>
        </Description>
        <CodeListRef CodeListOID="CL.AEDICT"/>
        <def:Origin Type="Assigned"/>
      </ItemDef>
      <ItemDef OID="IT.AE.AEDECOD" Name="AEDECOD" DataType="text" Length="18" SASFieldName="AEDECOD">
        <Description>
          <TranslatedText xml:lang="en">Dictionary-Derived Term</TranslatedText>
        </Description>
        <CodeListRef CodeListOID="CL.AEDICT"/>
        <def:Origin Type="Assigned"/>
      </ItemDef>
      <ItemDef OID="IT.AE.AEENDTC" Name="AEENDTC" DataType="date" SASFieldName="AEENDTC">
        <Description>
          <TranslatedText xml:lang="en">End Date/Time of Adverse Event</TranslatedText>
        </Description>
        <def:Origin Type="CRF">
          <def:DocumentRef leafID="LF.acrf.001">
            <def:PDFPageRef PageRefs="21" Type="PhysicalRef"/>
          </def:DocumentRef>
        </def:Origin>
      </ItemDef>
      <ItemDef OID="IT.AE.AEENDY" Name="AEENDY" DataType="integer" Length="3" SASFieldName="AEENDY">
        <Description>
          <TranslatedText xml:lang="en">Study Day of End of Adverse Event</TranslatedText>
        </Description>
        <def:Origin Type="Derived"/>
      </ItemDef>
      <ItemDef OID="IT.AE.AEENRF" Name="AEENRF" DataType="text" Length="5" SASFieldName="AEENRF">
        <Description>
          <TranslatedText xml:lang="en">End Relative to Reference Period</TranslatedText>
        </Description>
        <CodeListRef CodeListOID="CL.AEENRF"/>
        <def:Origin Type="CRF">
          <def:DocumentRef leafID="LF.acrf.001">
            <def:PDFPageRef PageRefs="21" Type="PhysicalRef"/>
          </def:DocumentRef>
        </def:Origin>
      </ItemDef>
      <ItemDef OID="IT.AE.AEMODIFY" Name="AEMODIFY" DataType="text" Length="9" SASFieldName="AEMODIFY">
        <Description>
          <TranslatedText xml:lang="en">Modified Reported Term</TranslatedText>
        </Description>
        <def:Origin Type="Assigned"/>
      </ItemDef>
      <ItemDef OID="IT.AE.AEREL" Name="AEREL" DataType="text" Length="16" SASFieldName="AEREL">
        <Description>
          <TranslatedText xml:lang="en">Causality</TranslatedText>
        </Description>
        <CodeListRef CodeListOID="CL.AEREL"/>
        <def:Origin Type="CRF">
          <def:DocumentRef leafID="LF.acrf.001">
            <def:PDFPageRef PageRefs="21" Type="PhysicalRef"/>
          </def:DocumentRef>
        </def:Origin>
      </ItemDef>
      <ItemDef OID="IT.AE.AESEQ" Name="AESEQ" DataType="integer" Length="1" SASFieldName="AESEQ">
        <Description>
          <TranslatedText xml:lang="en">Sequence Number</TranslatedText>
        </Description>
        <def:Origin Type="Derived"/>
      </ItemDef>
      <ItemDef OID="IT.AE.AESER" Name="AESER" DataType="text" Length="1" SASFieldName="AESER">
        <Description>
          <TranslatedText xml:lang="en">Serious Event</TranslatedText>
        </Description>
        <CodeListRef CodeListOID="CL.NY"/>
        <def:Origin Type="CRF">
          <def:DocumentRef leafID="LF.acrf.001">
            <def:PDFPageRef PageRefs="21" Type="PhysicalRef"/>
          </def:DocumentRef>
        </def:Origin>
      </ItemDef>
      <ItemDef OID="IT.AE.AESEV" Name="AESEV" DataType="text" Length="8" SASFieldName="AESEV">
        <Description>
          <TranslatedText xml:lang="en">Severity/Intensity</TranslatedText>
        </Description>
        <CodeListRef CodeListOID="CL.AESEV"/>
        <def:Origin Type="CRF">
          <def:DocumentRef leafID="LF.acrf.001">
            <def:PDFPageRef PageRefs="21" Type="PhysicalRef"/>
          </def:DocumentRef>
        </def:Origin>
      </ItemDef>
      <ItemDef OID="IT.AE.AESPID" Name="AESPID" DataType="text" Length="4" SASFieldName="AESPID">
        <Description>
          <TranslatedText xml:lang="en">Sponsor-Defined Identifier</TranslatedText>
        </Description>
        <def:Origin Type="CRF">
          <def:DocumentRef leafID="LF.acrf.001">
            <def:PDFPageRef PageRefs="21" Type="PhysicalRef"/>
          </def:DocumentRef>
        </def:Origin>
      </ItemDef>
      <ItemDef OID="IT.AE.AESTDTC" Name="AESTDTC" DataType="date" SASFieldName="AESTDTC">
        <Description>
          <TranslatedText xml:lang="en">Start Date/Time of Adverse Event</TranslatedText>
        </Description>
        <def:Origin Type="CRF">
          <def:DocumentRef leafID="LF.acrf.001">
            <def:PDFPageRef PageRefs="21" Type="PhysicalRef"/>
          </def:DocumentRef>
        </def:Origin>
      </ItemDef>
      <ItemDef OID="IT.AE.AESTDY" Name="AESTDY" DataType="integer" Length="3" SASFieldName="AESTDY">
        <Description>
          <TranslatedText xml:lang="en">Study Day of Start of Adverse Event</TranslatedText>
        </Description>
        <def:Origin Type="Derived"/>
      </ItemDef>
      <ItemDef OID="IT.AE.AETERM" Name="AETERM" DataType="text" Length="25" SASFieldName="AETERM">
        <Description>
          <TranslatedText xml:lang="en">Reported Term for the Adverse Event</TranslatedText>
        </Description>
        <def:Origin Type="CRF">
          <def:DocumentRef leafID="LF.acrf.001">
            <def:PDFPageRef PageRefs="21" Type="PhysicalRef"/>
          </def:DocumentRef>
        </def:Origin>
      </ItemDef>
      <ItemDef OID="IT.AE.DOMAIN" Name="DOMAIN" DataType="text" Length="2" SASFieldName="DOMAIN">
        <Description>
          <TranslatedText xml:lang="en">Domain Abbreviation</TranslatedText>
        </Description>
        <CodeListRef CodeListOID="CL.AEDOM"/>
        <def:Origin Type="Assigned"/>
      </ItemDef>
      <ItemDef OID="IT.AE.STUDYID" Name="STUDYID" DataType="text" Length="7" SASFieldName="STUDYID">
        <Description>
          <TranslatedText xml:lang="en">Study Identifier</TranslatedText>
        </Description>
        <def:Origin Type="Protocol"/>
      </ItemDef>
      <ItemDef OID="IT.AE.USUBJID" Name="USUBJID" DataType="text" Length="14" SASFieldName="USUBJID">
        <Description>
          <TranslatedText xml:lang="en">Unique Subject Identifier</TranslatedText>
        </Description>
        <def:Origin Type="Derived"/>
      </ItemDef>
      <ItemDef OID="IT.CM.CMCAT" Name="CMCAT" DataType="text" Length="36" SASFieldName="CMCAT">
        <Description>
          <TranslatedText xml:lang="en">Category for Medication</TranslatedText>
        </Description>
        <CodeListRef CodeListOID="CL.CMCAT"/>
        <def:Origin Type="CRF">
          <def:DocumentRef leafID="LF.acrf.001">
            <def:PDFPageRef PageRefs="9 22" Type="PhysicalRef"/>
          </def:DocumentRef>
        </def:Origin>
      </ItemDef>
      <ItemDef OID="IT.CM.CMCLAS" Name="CMCLAS" DataType="text" Length="45" SASFieldName="CMCLAS" def:CommentOID="COM.CM.CMCLAS">
        <Description>
          <TranslatedText xml:lang="en">Medication Class</TranslatedText>
        </Description>
        <CodeListRef CodeListOID="CL.DRUGDCT"/>
        <def:Origin Type="Assigned"/>
      </ItemDef>
      <ItemDef OID="IT.CM.CMCLASCD" Name="CMCLASCD" DataType="text" Length="3" SASFieldName="CMCLASCD" def:CommentOID="COM.CM.CMCLASCD">
        <Description>
          <TranslatedText xml:lang="en">Medication Class Code</TranslatedText>
        </Description>
        <CodeListRef CodeListOID="CL.DRUGDCT"/>
        <def:Origin Type="Assigned"/>
      </ItemDef>
      <ItemDef OID="IT.CM.CMDECOD" Name="CMDECOD" DataType="text" Length="30" SASFieldName="CMDECOD">
        <Description>
          <TranslatedText xml:lang="en">Standardized Medication Name</TranslatedText>
        </Description>
        <CodeListRef CodeListOID="CL.DRUGDCT"/>
        <def:Origin Type="Assigned"/>
      </ItemDef>
      <ItemDef OID="IT.CM.CMDOSFRQ" Name="CMDOSFRQ" DataType="text" Length="5" SASFieldName="CMDOSFRQ">
        <Description>
          <TranslatedText xml:lang="en">Dosing Frequency per Interval</TranslatedText>
        </Description>
        <CodeListRef CodeListOID="CL.FREQ"/>
        <def:Origin Type="CRF">
          <def:DocumentRef leafID="LF.acrf.001">
            <def:PDFPageRef PageRefs="22" Type="PhysicalRef"/>
          </def:DocumentRef>
        </def:Origin>
      </ItemDef>
      <ItemDef OID="IT.CM.CMDOSTXT" Name="CMDOSTXT" DataType="text" Length="4" SASFieldName="CMDOSTXT">
        <Description>
          <TranslatedText xml:lang="en">Dose Description</TranslatedText>
        </Description>
        <def:Origin Type="CRF">
          <def:DocumentRef leafID="LF.acrf.001">
            <def:PDFPageRef PageRefs="9 22" Type="PhysicalRef"/>
          </def:DocumentRef>
        </def:Origin>
      </ItemDef>
      <ItemDef OID="IT.CM.CMDOSU" Name="CMDOSU" DataType="text" Length="6" SASFieldName="CMDOSU">
        <Description>
          <TranslatedText xml:lang="en">Dose Units</TranslatedText>
        </Description>
        <CodeListRef CodeListOID="CL.CMUNIT"/>
        <def:Origin Type="CRF">
          <def:DocumentRef leafID="LF.acrf.001">
            <def:PDFPageRef PageRefs="9 22" Type="PhysicalRef"/>
          </def:DocumentRef>
        </def:Origin>
      </ItemDef>
      <ItemDef OID="IT.CM.CMENDTC" Name="CMENDTC" DataType="date" SASFieldName="CMENDTC">
        <Description>
          <TranslatedText xml:lang="en">End Date/Time of Medication</TranslatedText>
        </Description>
        <def:Origin Type="CRF">
          <def:DocumentRef leafID="LF.acrf.001">
            <def:PDFPageRef PageRefs="9 22" Type="PhysicalRef"/>
          </def:DocumentRef>
        </def:Origin>
      </ItemDef>
      <ItemDef OID="IT.CM.CMENDY" Name="CMENDY" DataType="integer" Length="4" SASFieldName="CMENDY">
        <Description>
          <TranslatedText xml:lang="en">Study Day of End of Medication</TranslatedText>
        </Description>
        <def:Origin Type="Derived"/>
      </ItemDef>
      <ItemDef OID="IT.CM.CMENRF" Name="CMENRF" DataType="text" Length="6" SASFieldName="CMENRF">
        <Description>
          <TranslatedText xml:lang="en">End Relative to Reference Period</TranslatedText>
        </Description>
        <CodeListRef CodeListOID="CL.CMENRF"/>
        <def:Origin Type="CRF">
          <def:DocumentRef leafID="LF.acrf.001">
            <def:PDFPageRef PageRefs="22" Type="PhysicalRef"/>
          </def:DocumentRef>
        </def:Origin>
      </ItemDef>
      <ItemDef OID="IT.CM.CMINDC" Name="CMINDC" DataType="text" Length="27" SASFieldName="CMINDC">
        <Description>
          <TranslatedText xml:lang="en">Indication</TranslatedText>
        </Description>
        <def:Origin Type="CRF">
          <def:DocumentRef leafID="LF.acrf.001">
            <def:PDFPageRef PageRefs="9 22" Type="PhysicalRef"/>
          </def:DocumentRef>
        </def:Origin>
      </ItemDef>
      <ItemDef OID="IT.CM.CMMODIFY" Name="CMMODIFY" DataType="text" Length="23" SASFieldName="CMMODIFY">
        <Description>
          <TranslatedText xml:lang="en">Modified Reported Name</TranslatedText>
        </Description>
        <def:Origin Type="Assigned"/>
      </ItemDef>
      <ItemDef OID="IT.CM.CMROUTE" Name="CMROUTE" DataType="text" Length="12" SASFieldName="CMROUTE" def:CommentOID="COM.CM.CMROUTE">
        <Description>
          <TranslatedText xml:lang="en">Route of Administration</TranslatedText>
        </Description>
        <CodeListRef CodeListOID="CL.ROUTE"/>
        <def:Origin Type="CRF">
          <def:DocumentRef leafID="LF.acrf.001">
            <def:PDFPageRef PageRefs="22" Type="PhysicalRef"/>
          </def:DocumentRef>
        </def:Origin>
      </ItemDef>
      <ItemDef OID="IT.CM.CMSEQ" Name="CMSEQ" DataType="integer" Length="2" SASFieldName="CMSEQ">
        <Description>
          <TranslatedText xml:lang="en">Sequence Number</TranslatedText>
        </Description>
        <def:Origin Type="Derived"/>
      </ItemDef>
      <ItemDef OID="IT.CM.CMSTDTC" Name="CMSTDTC" DataType="date" SASFieldName="CMSTDTC">
        <Description>
          <TranslatedText xml:lang="en">Start Date/Time of Medication</TranslatedText>
        </Description>
        <def:Origin Type="CRF">
          <def:DocumentRef leafID="LF.acrf.001">
            <def:PDFPageRef PageRefs="9 22" Type="PhysicalRef"/>
          </def:DocumentRef>
        </def:Origin>
      </ItemDef>
      <ItemDef OID="IT.CM.CMSTDY" Name="CMSTDY" DataType="integer" Length="6" SASFieldName="CMSTDY">
        <Description>
          <TranslatedText xml:lang="en">Study Day of Start of Medication</TranslatedText>
        </Description>
        <def:Origin Type="Derived"/>
      </ItemDef>
      <ItemDef OID="IT.CM.CMTRT" Name="CMTRT" DataType="text" Length="23" SASFieldName="CMTRT">
        <Description>
          <TranslatedText xml:lang="en">Reported Name of Drug, Med, or Therapy</TranslatedText>
        </Description>
        <def:Origin Type="CRF">
          <def:DocumentRef leafID="LF.acrf.001">
            <def:PDFPageRef PageRefs="9 22" Type="PhysicalRef"/>
          </def:DocumentRef>
        </def:Origin>
      </ItemDef>
      <ItemDef OID="IT.CM.DOMAIN" Name="DOMAIN" DataType="text" Length="2" SASFieldName="DOMAIN">
        <Description>
          <TranslatedText xml:lang="en">Domain Abbreviation</TranslatedText>
        </Description>
        <CodeListRef CodeListOID="CL.CMDOM"/>
        <def:Origin Type="Assigned"/>
      </ItemDef>
      <ItemDef OID="IT.CM.STUDYID" Name="STUDYID" DataType="text" Length="7" SASFieldName="STUDYID">
        <Description>
          <TranslatedText xml:lang="en">Study Identifier</TranslatedText>
        </Description>
        <def:Origin Type="Protocol"/>
      </ItemDef>
      <ItemDef OID="IT.CM.USUBJID" Name="USUBJID" DataType="text" Length="14" SASFieldName="USUBJID">
        <Description>
          <TranslatedText xml:lang="en">Unique Subject Identifier</TranslatedText>
        </Description>
        <def:Origin Type="Derived"/>
      </ItemDef>
      <ItemDef OID="IT.DA.DADTC" Name="DADTC" DataType="date" SASFieldName="DADTC">
        <Description>
          <TranslatedText xml:lang="en">Date/Time of Accountability Assessment</TranslatedText>
        </Description>
        <def:Origin Type="CRF">
          <def:DocumentRef leafID="LF.acrf.001">
            <def:PDFPageRef PageRefs="19" Type="PhysicalRef"/>
          </def:DocumentRef>
        </def:Origin>
      </ItemDef>
      <ItemDef OID="IT.DA.DADY" Name="DADY" DataType="integer" Length="3" SASFieldName="DADY">
        <Description>
          <TranslatedText xml:lang="en">Study Day of Accountability Assessment</TranslatedText>
        </Description>
        <def:Origin Type="Derived"/>
      </ItemDef>
      <ItemDef OID="IT.DA.DAORRES" Name="DAORRES" DataType="text" Length="2" SASFieldName="DAORRES">
        <Description>
          <TranslatedText xml:lang="en">Assessment Result in Original Units</TranslatedText>
        </Description>
        <def:Origin Type="CRF">
          <def:DocumentRef leafID="LF.acrf.001">
            <def:PDFPageRef PageRefs="19" Type="PhysicalRef"/>
          </def:DocumentRef>
        </def:Origin>
        <def:ValueListRef ValueListOID="VL.DA.DAORRES"/>
      </ItemDef>
      <ItemDef OID="IT.DA.DAORRESU" Name="DAORRESU" DataType="text" Length="7" SASFieldName="DAORRESU">
        <Description>
          <TranslatedText xml:lang="en">Original Units</TranslatedText>
        </Description>
        <def:Origin Type="CRF">
          <def:DocumentRef leafID="LF.acrf.001">
            <def:PDFPageRef PageRefs="19" Type="PhysicalRef"/>
          </def:DocumentRef>
        </def:Origin>
      </ItemDef>
      <ItemDef OID="IT.DA.DASEQ" Name="DASEQ" DataType="integer" Length="1" SASFieldName="DASEQ">
        <Description>
          <TranslatedText xml:lang="en">Sequence Number</TranslatedText>
        </Description>
        <def:Origin Type="Derived"/>
      </ItemDef>
      <ItemDef OID="IT.DA.DASTRESC" Name="DASTRESC" DataType="text" Length="2" SASFieldName="DASTRESC">
        <Description>
          <TranslatedText xml:lang="en">Assessment Result in Std Format</TranslatedText>
        </Description>
        <def:Origin Type="Derived"/>
      </ItemDef>
      <ItemDef OID="IT.DA.DASTRESN" Name="DASTRESN" DataType="integer" Length="2" SASFieldName="DASTRESN">
        <Description>
          <TranslatedText xml:lang="en">Numeric Result/Finding in Standard Units</TranslatedText>
        </Description>
        <def:Origin Type="Derived"/>
      </ItemDef>
      <ItemDef OID="IT.DA.DASTRESU" Name="DASTRESU" DataType="text" Length="7" SASFieldName="DASTRESU">
        <Description>
          <TranslatedText xml:lang="en">Assessment Standard Units</TranslatedText>
        </Description>
        <def:Origin Type="Derived"/>
      </ItemDef>
      <ItemDef OID="IT.DA.DATEST" Name="DATEST" DataType="text" Length="25" SASFieldName="DATEST">
        <Description>
          <TranslatedText xml:lang="en">Name of Accountability Assessment</TranslatedText>
        </Description>
        <CodeListRef CodeListOID="CL.DATEST"/>
        <def:Origin Type="CRF">
          <def:DocumentRef leafID="LF.acrf.001">
            <def:PDFPageRef PageRefs="19" Type="PhysicalRef"/>
          </def:DocumentRef>
        </def:Origin>
      </ItemDef>
      <ItemDef OID="IT.DA.DATESTCD" Name="DATESTCD" DataType="text" Length="7" SASFieldName="DATESTCD">
        <Description>
          <TranslatedText xml:lang="en">Short Name of Accountability Assessment</TranslatedText>
        </Description>
        <CodeListRef CodeListOID="CL.DATESTC"/>
        <def:Origin Type="Assigned"/>
      </ItemDef>
      <ItemDef OID="IT.DA.DOMAIN" Name="DOMAIN" DataType="text" Length="2" SASFieldName="DOMAIN">
        <Description>
          <TranslatedText xml:lang="en">Domain Abbreviation</TranslatedText>
        </Description>
        <CodeListRef CodeListOID="CL.DADOM"/>
        <def:Origin Type="Assigned"/>
      </ItemDef>
      <ItemDef OID="IT.DA.STUDYID" Name="STUDYID" DataType="text" Length="7" SASFieldName="STUDYID">
        <Description>
          <TranslatedText xml:lang="en">Study Identifier</TranslatedText>
        </Description>
        <def:Origin Type="Protocol"/>
      </ItemDef>
      <ItemDef OID="IT.DA.USUBJID" Name="USUBJID" DataType="text" Length="14" SASFieldName="USUBJID">
        <Description>
          <TranslatedText xml:lang="en">Unique Subject Identifier</TranslatedText>
        </Description>
        <def:Origin Type="Derived"/>
      </ItemDef>
      <ItemDef OID="IT.DA.VISIT" Name="VISIT" DataType="text" Length="8" SASFieldName="VISIT">
        <Description>
          <TranslatedText xml:lang="en">Visit Name</TranslatedText>
        </Description>
        <def:Origin Type="Assigned"/>
      </ItemDef>
      <ItemDef OID="IT.DA.VISITDY" Name="VISITDY" DataType="integer" Length="3" SASFieldName="VISITDY">
        <Description>
          <TranslatedText xml:lang="en">Planned Study Day of Visit</TranslatedText>
        </Description>
        <def:Origin Type="Protocol"/>
      </ItemDef>
      <ItemDef OID="IT.DA.VISITNUM" Name="VISITNUM" DataType="integer" Length="2" SASFieldName="VISITNUM">
        <Description>
          <TranslatedText xml:lang="en">Visit Number</TranslatedText>
        </Description>
        <def:Origin Type="Derived"/>
      </ItemDef>
      <ItemDef OID="IT.DM.AGE" Name="AGE" DataType="integer" Length="2" SASFieldName="AGE">
        <Description>
          <TranslatedText xml:lang="en">Age</TranslatedText>
        </Description>
        <def:Origin Type="Derived"/>
      </ItemDef>
      <ItemDef OID="IT.DM.AGEU" Name="AGEU" DataType="text" Length="5" SASFieldName="AGEU" def:CommentOID="COM.DM.AGEU">
        <Description>
          <TranslatedText xml:lang="en">Age Units</TranslatedText>
        </Description>
        <def:Origin Type="Assigned"/>
      </ItemDef>
      <ItemDef OID="IT.DM.ARM" Name="ARM" DataType="text" Length="20" SASFieldName="ARM" def:CommentOID="COM.DM.ARM">
        <Description>
          <TranslatedText xml:lang="en">Description of Planned Arm</TranslatedText>
        </Description>
        <CodeListRef CodeListOID="CL.ARM"/>
        <def:Origin Type="Assigned"/>
      </ItemDef>
      <ItemDef OID="IT.DM.ARMCD" Name="ARMCD" DataType="text" Length="8" SASFieldName="ARMCD" def:CommentOID="COM.DM.ARMCD">
        <Description>
          <TranslatedText xml:lang="en">Planned Arm Code</TranslatedText>
        </Description>
        <CodeListRef CodeListOID="CL.ARMCD"/>
        <def:Origin Type="Assigned"/>
      </ItemDef>
      <ItemDef OID="IT.DM.BRTHDTC" Name="BRTHDTC" DataType="date" SASFieldName="BRTHDTC">
        <Description>
          <TranslatedText xml:lang="en">Date/Time of Birth</TranslatedText>
        </Description>
        <def:Origin Type="CRF">
          <def:DocumentRef leafID="LF.acrf.001">
            <def:PDFPageRef PageRefs="6" Type="PhysicalRef"/>
          </def:DocumentRef>
        </def:Origin>
      </ItemDef>
      <ItemDef OID="IT.DM.COUNTRY" Name="COUNTRY" DataType="text" Length="3" SASFieldName="COUNTRY">
        <Description>
          <TranslatedText xml:lang="en">Country</TranslatedText>
        </Description>
        <CodeListRef CodeListOID="CL.IS3166F"/>
        <def:Origin Type="Assigned"/>
      </ItemDef>
      <ItemDef OID="IT.DM.DOMAIN" Name="DOMAIN" DataType="text" Length="2" SASFieldName="DOMAIN">
        <Description>
          <TranslatedText xml:lang="en">Domain Abbreviation</TranslatedText>
        </Description>
        <CodeListRef CodeListOID="CL.DMDOM"/>
        <def:Origin Type="Assigned"/>
      </ItemDef>
      <ItemDef OID="IT.DM.ETHNIC" Name="ETHNIC" DataType="text" Length="22" SASFieldName="ETHNIC">
        <Description>
          <TranslatedText xml:lang="en">Ethnicity</TranslatedText>
        </Description>
        <CodeListRef CodeListOID="CL.ETHNIC"/>
        <def:Origin Type="CRF">
          <def:DocumentRef leafID="LF.acrf.001">
            <def:PDFPageRef PageRefs="6" Type="PhysicalRef"/>
          </def:DocumentRef>
        </def:Origin>
      </ItemDef>
      <ItemDef OID="IT.DM.RACE" Name="RACE" DataType="text" Length="40" SASFieldName="RACE">
        <Description>
          <TranslatedText xml:lang="en">Race</TranslatedText>
        </Description>
        <CodeListRef CodeListOID="CL.RACE"/>
        <def:Origin Type="CRF">
          <def:DocumentRef leafID="LF.acrf.001">
            <def:PDFPageRef PageRefs="6" Type="PhysicalRef"/>
          </def:DocumentRef>
        </def:Origin>
      </ItemDef>
      <ItemDef OID="IT.DM.RFENDTC" Name="RFENDTC" DataType="date" SASFieldName="RFENDTC">
        <Description>
          <TranslatedText xml:lang="en">Subject Reference End Date/Time</TranslatedText>
        </Description>
        <def:Origin Type="Derived"/>
      </ItemDef>
      <ItemDef OID="IT.DM.RFSTDTC" Name="RFSTDTC" DataType="date" SASFieldName="RFSTDTC">
        <Description>
          <TranslatedText xml:lang="en">Subject Reference Start Date/Time</TranslatedText>
        </Description>
        <def:Origin Type="Derived"/>
      </ItemDef>
      <ItemDef OID="IT.DM.SEX" Name="SEX" DataType="text" Length="1" SASFieldName="SEX">
        <Description>
          <TranslatedText xml:lang="en">Sex</TranslatedText>
        </Description>
        <CodeListRef CodeListOID="CL.SEX"/>
        <def:Origin Type="CRF">
          <def:DocumentRef leafID="LF.acrf.001">
            <def:PDFPageRef PageRefs="6" Type="PhysicalRef"/>
          </def:DocumentRef>
        </def:Origin>
      </ItemDef>
      <ItemDef OID="IT.DM.SITEID" Name="SITEID" DataType="text" Length="3" SASFieldName="SITEID">
        <Description>
          <TranslatedText xml:lang="en">Study Site Identifier</TranslatedText>
        </Description>
        <def:Origin Type="CRF">
          <def:DocumentRef leafID="LF.acrf.001">
            <def:PDFPageRef PageRefs="3" Type="PhysicalRef"/>
          </def:DocumentRef>
        </def:Origin>
      </ItemDef>
      <ItemDef OID="IT.DM.STUDYID" Name="STUDYID" DataType="text" Length="7" SASFieldName="STUDYID">
        <Description>
          <TranslatedText xml:lang="en">Study Identifier</TranslatedText>
        </Description>
        <def:Origin Type="Protocol"/>
      </ItemDef>
      <ItemDef OID="IT.DM.SUBJID" Name="SUBJID" DataType="text" Length="6" SASFieldName="SUBJID">
        <Description>
          <TranslatedText xml:lang="en">Subject Identifier for the Study</TranslatedText>
        </Description>
        <def:Origin Type="CRF">
          <def:DocumentRef leafID="LF.acrf.001">
            <def:PDFPageRef PageRefs="3" Type="PhysicalRef"/>
          </def:DocumentRef>
        </def:Origin>
      </ItemDef>
      <ItemDef OID="IT.DM.USUBJID" Name="USUBJID" DataType="text" Length="14" SASFieldName="USUBJID">
        <Description>
          <TranslatedText xml:lang="en">Unique Subject Identifier</TranslatedText>
        </Description>
        <def:Origin Type="Derived"/>
      </ItemDef>
      <ItemDef OID="IT.DS.DOMAIN" Name="DOMAIN" DataType="text" Length="2" SASFieldName="DOMAIN">
        <Description>
          <TranslatedText xml:lang="en">Domain Abbreviation</TranslatedText>
        </Description>
        <CodeListRef CodeListOID="CL.DSDOM"/>
        <def:Origin Type="Assigned"/>
      </ItemDef>
      <ItemDef OID="IT.DS.DSCAT" Name="DSCAT" DataType="text" Length="18" SASFieldName="DSCAT">
        <Description>
          <TranslatedText xml:lang="en">Category for Disposition Event</TranslatedText>
        </Description>
        <CodeListRef CodeListOID="CL.DSCAT"/>
        <def:Origin Type="Assigned"/>
      </ItemDef>
      <ItemDef OID="IT.DS.DSDECOD" Name="DSDECOD" DataType="text" Length="21" SASFieldName="DSDECOD" def:CommentOID="COM.DS.DSDECOD">
        <Description>
          <TranslatedText xml:lang="en">Standardized Disposition Term</TranslatedText>
        </Description>
        <CodeListRef CodeListOID="CL.NOCOMPL"/>
        <def:Origin Type="CRF">
          <def:DocumentRef leafID="LF.acrf.001">
            <def:PDFPageRef PageRefs="6 16 18" Type="PhysicalRef"/>
          </def:DocumentRef>
        </def:Origin>
      </ItemDef>
      <ItemDef OID="IT.DS.DSSEQ" Name="DSSEQ" DataType="integer" Length="1" SASFieldName="DSSEQ">
        <Description>
          <TranslatedText xml:lang="en">Sequence Number</TranslatedText>
        </Description>
        <def:Origin Type="Derived"/>
      </ItemDef>
      <ItemDef OID="IT.DS.DSSTDTC" Name="DSSTDTC" DataType="date" SASFieldName="DSSTDTC">
        <Description>
          <TranslatedText xml:lang="en">Start Date/Time of Disposition Event</TranslatedText>
        </Description>
        <def:Origin Type="CRF">
          <def:DocumentRef leafID="LF.acrf.001">
            <def:PDFPageRef PageRefs="6 16 18" Type="PhysicalRef"/>
          </def:DocumentRef>
        </def:Origin>
      </ItemDef>
      <ItemDef OID="IT.DS.DSSTDY" Name="DSSTDY" DataType="integer" Length="3" SASFieldName="DSSTDY">
        <Description>
          <TranslatedText xml:lang="en">Study Day of Start of Disposition Event</TranslatedText>
        </Description>
        <def:Origin Type="Derived"/>
      </ItemDef>
      <ItemDef OID="IT.DS.DSTERM" Name="DSTERM" DataType="text" Length="34" SASFieldName="DSTERM">
        <Description>
          <TranslatedText xml:lang="en">Reported Term for the Disposition Event</TranslatedText>
        </Description>
        <CodeListRef CodeListOID="CL.TREASF"/>
        <def:Origin Type="CRF">
          <def:DocumentRef leafID="LF.acrf.001">
            <def:PDFPageRef PageRefs="6 16 18" Type="PhysicalRef"/>
          </def:DocumentRef>
        </def:Origin>
      </ItemDef>
      <ItemDef OID="IT.DS.EPOCH" Name="EPOCH" DataType="text" Length="9" SASFieldName="EPOCH">
        <Description>
          <TranslatedText xml:lang="en">Epoch</TranslatedText>
        </Description>
        <CodeListRef CodeListOID="CL.EPOCH"/>
        <def:Origin Type="Assigned"/>
      </ItemDef>
      <ItemDef OID="IT.DS.STUDYID" Name="STUDYID" DataType="text" Length="7" SASFieldName="STUDYID">
        <Description>
          <TranslatedText xml:lang="en">Study Identifier</TranslatedText>
        </Description>
        <def:Origin Type="Protocol"/>
      </ItemDef>
      <ItemDef OID="IT.DS.USUBJID" Name="USUBJID" DataType="text" Length="14" SASFieldName="USUBJID">
        <Description>
          <TranslatedText xml:lang="en">Unique Subject Identifier</TranslatedText>
        </Description>
        <def:Origin Type="Derived"/>
      </ItemDef>
      <ItemDef OID="IT.EG.DOMAIN" Name="DOMAIN" DataType="text" Length="2" SASFieldName="DOMAIN">
        <Description>
          <TranslatedText xml:lang="en">Domain Abbreviation</TranslatedText>
        </Description>
        <CodeListRef CodeListOID="CL.EGDOM"/>
        <def:Origin Type="Assigned"/>
      </ItemDef>
      <ItemDef OID="IT.EG.EGBLFL" Name="EGBLFL" DataType="text" Length="1" SASFieldName="EGBLFL">
        <Description>
          <TranslatedText xml:lang="en">Baseline Flag</TranslatedText>
        </Description>
        <CodeListRef CodeListOID="CL.NY"/>
        <def:Origin Type="Derived"/>
      </ItemDef>
      <ItemDef OID="IT.EG.EGDRVFL" Name="EGDRVFL" DataType="text" Length="1" SASFieldName="EGDRVFL">
        <Description>
          <TranslatedText xml:lang="en">Derived Flag</TranslatedText>
        </Description>
        <CodeListRef CodeListOID="CL.NY"/>
        <def:Origin Type="Derived"/>
      </ItemDef>
      <ItemDef OID="IT.EG.EGDTC" Name="EGDTC" DataType="date" SASFieldName="EGDTC">
        <Description>
          <TranslatedText xml:lang="en">Date/Time of ECG</TranslatedText>
        </Description>
        <def:Origin Type="CRF">
          <def:DocumentRef leafID="LF.acrf.001">
            <def:PDFPageRef PageRefs="12" Type="PhysicalRef"/>
          </def:DocumentRef>
        </def:Origin>
      </ItemDef>
      <ItemDef OID="IT.EG.EGDY" Name="EGDY" DataType="integer" Length="3" SASFieldName="EGDY">
        <Description>
          <TranslatedText xml:lang="en">Study Day of ECG</TranslatedText>
        </Description>
        <def:Origin Type="Derived"/>
      </ItemDef>
      <ItemDef OID="IT.EG.EGEVAL" Name="EGEVAL" DataType="text" Length="12" SASFieldName="EGEVAL" def:CommentOID="COM.EG.EGEVAL">
        <Description>
          <TranslatedText xml:lang="en">Evaluator</TranslatedText>
        </Description>
        <def:Origin Type="Assigned"/>
      </ItemDef>
      <ItemDef OID="IT.EG.EGORRES" Name="EGORRES" DataType="text" Length="15" SASFieldName="EGORRES">
        <Description>
          <TranslatedText xml:lang="en">Result or Finding in Original Units</TranslatedText>
        </Description>
        <def:Origin Type="CRF">
          <def:DocumentRef leafID="LF.acrf.001">
            <def:PDFPageRef PageRefs="12" Type="PhysicalRef"/>
          </def:DocumentRef>
        </def:Origin>
        <def:ValueListRef ValueListOID="VL.EG.EGORRES"/>
      </ItemDef>
      <ItemDef OID="IT.EG.EGORRESU" Name="EGORRESU" DataType="text" Length="4" SASFieldName="EGORRESU">
        <Description>
          <TranslatedText xml:lang="en">Original Units</TranslatedText>
        </Description>
        <CodeListRef CodeListOID="CL.EGRESU"/>
        <def:Origin Type="CRF">
          <def:DocumentRef leafID="LF.acrf.001">
            <def:PDFPageRef PageRefs="12" Type="PhysicalRef"/>
          </def:DocumentRef>
        </def:Origin>
      </ItemDef>
      <ItemDef OID="IT.EG.EGPOS" Name="EGPOS" DataType="text" Length="6" SASFieldName="EGPOS" def:CommentOID="COM.EG.EGPOS">
        <Description>
          <TranslatedText xml:lang="en">ECG Position of Subject</TranslatedText>
        </Description>
        <def:Origin Type="Protocol"/>
      </ItemDef>
      <ItemDef OID="IT.EG.EGSEQ" Name="EGSEQ" DataType="integer" Length="2" SASFieldName="EGSEQ">
        <Description>
          <TranslatedText xml:lang="en">Sequence Number</TranslatedText>
        </Description>
        <def:Origin Type="Derived"/>
      </ItemDef>
      <ItemDef OID="IT.EG.EGSPID" Name="EGSPID" DataType="text" Length="6" SASFieldName="EGSPID" def:CommentOID="COM.EG.EGSPID">
        <Description>
          <TranslatedText xml:lang="en">Sponsor-Defined Identifier</TranslatedText>
        </Description>
        <def:Origin Type="Assigned"/>
      </ItemDef>
      <ItemDef OID="IT.EG.EGSTRESC" Name="EGSTRESC" DataType="text" Length="15" SASFieldName="EGSTRESC">
        <Description>
          <TranslatedText xml:lang="en">Character Result/Finding in Std Format</TranslatedText>
        </Description>
        <def:Origin Type="Derived"/>
        <def:ValueListRef ValueListOID="VL.EG.EGSTRESC"/>
      </ItemDef>
      <ItemDef OID="IT.EG.EGSTRESN" Name="EGSTRESN" DataType="float" Length="5" SignificantDigits="1" SASFieldName="EGSTRESN" def:DisplayFormat="5.1">
        <Description>
          <TranslatedText xml:lang="en">Numeric Result/Finding in Standard Units</TranslatedText>
        </Description>
        <def:Origin Type="Derived"/>
      </ItemDef>
      <ItemDef OID="IT.EG.EGSTRESU" Name="EGSTRESU" DataType="text" Length="9" SASFieldName="EGSTRESU">
        <Description>
          <TranslatedText xml:lang="en">Standard Units</TranslatedText>
        </Description>
        <CodeListRef CodeListOID="CL.EGRESU"/>
        <def:Origin Type="Assigned"/>
      </ItemDef>
      <ItemDef OID="IT.EG.EGTEST" Name="EGTEST" DataType="text" Length="40" SASFieldName="EGTEST">
        <Description>
          <TranslatedText xml:lang="en">ECG Test or Examination Name</TranslatedText>
        </Description>
        <CodeListRef CodeListOID="CL.EGTEST"/>
        <def:Origin Type="CRF">
          <def:DocumentRef leafID="LF.acrf.001">
            <def:PDFPageRef PageRefs="12" Type="PhysicalRef"/>
          </def:DocumentRef>
        </def:Origin>
      </ItemDef>
      <ItemDef OID="IT.EG.EGTESTCD" Name="EGTESTCD" DataType="text" Length="6" SASFieldName="EGTESTCD">
        <Description>
          <TranslatedText xml:lang="en">ECG Test or Examination Short Name</TranslatedText>
        </Description>
        <CodeListRef CodeListOID="CL.EGTESTC"/>
        <def:Origin Type="Assigned"/>
      </ItemDef>
      <ItemDef OID="IT.EG.STUDYID" Name="STUDYID" DataType="text" Length="7" SASFieldName="STUDYID">
        <Description>
          <TranslatedText xml:lang="en">Study Identifier</TranslatedText>
        </Description>
        <def:Origin Type="Protocol"/>
      </ItemDef>
      <ItemDef OID="IT.EG.USUBJID" Name="USUBJID" DataType="text" Length="14" SASFieldName="USUBJID">
        <Description>
          <TranslatedText xml:lang="en">Unique Subject Identifier</TranslatedText>
        </Description>
        <def:Origin Type="Derived"/>
      </ItemDef>
      <ItemDef OID="IT.EG.VISIT" Name="VISIT" DataType="text" Length="7" SASFieldName="VISIT">
        <Description>
          <TranslatedText xml:lang="en">Visit Name</TranslatedText>
        </Description>
        <def:Origin Type="Assigned"/>
      </ItemDef>
      <ItemDef OID="IT.EG.VISITDY" Name="VISITDY" DataType="integer" Length="3" SASFieldName="VISITDY">
        <Description>
          <TranslatedText xml:lang="en">Planned Study Day of Visit</TranslatedText>
        </Description>
        <def:Origin Type="Protocol"/>
      </ItemDef>
      <ItemDef OID="IT.EG.VISITNUM" Name="VISITNUM" DataType="integer" Length="2" SASFieldName="VISITNUM" def:CommentOID="COM.EG.VISITNUM">
        <Description>
          <TranslatedText xml:lang="en">Visit Number</TranslatedText>
        </Description>
        <def:Origin Type="Assigned"/>
      </ItemDef>
      <ItemDef OID="IT.EX.DOMAIN" Name="DOMAIN" DataType="text" Length="2" SASFieldName="DOMAIN">
        <Description>
          <TranslatedText xml:lang="en">Domain Abbreviation</TranslatedText>
        </Description>
        <CodeListRef CodeListOID="CL.EXDOM"/>
        <def:Origin Type="Assigned"/>
      </ItemDef>
      <ItemDef OID="IT.EX.EXDOSE" Name="EXDOSE" DataType="integer" Length="2" SASFieldName="EXDOSE">
        <Description>
          <TranslatedText xml:lang="en">Dose per Administration</TranslatedText>
        </Description>
        <def:Origin Type="Derived"/>
      </ItemDef>
      <ItemDef OID="IT.EX.EXDOSFRM" Name="EXDOSFRM" DataType="text" Length="7" SASFieldName="EXDOSFRM">
        <Description>
          <TranslatedText xml:lang="en">Dose Form</TranslatedText>
        </Description>
        <CodeListRef CodeListOID="CL.FRM"/>
        <def:Origin Type="CRF">
          <def:DocumentRef leafID="LF.acrf.001">
            <def:PDFPageRef PageRefs="20" Type="PhysicalRef"/>
          </def:DocumentRef>
        </def:Origin>
      </ItemDef>
      <ItemDef OID="IT.EX.EXDOSU" Name="EXDOSU" DataType="text" Length="2" SASFieldName="EXDOSU">
        <Description>
          <TranslatedText xml:lang="en">Dose Units</TranslatedText>
        </Description>
        <def:Origin Type="Derived"/>
      </ItemDef>
      <ItemDef OID="IT.EX.EXENDTC" Name="EXENDTC" DataType="date" SASFieldName="EXENDTC">
        <Description>
          <TranslatedText xml:lang="en">End Date/Time of Treatment</TranslatedText>
        </Description>
        <def:Origin Type="CRF">
          <def:DocumentRef leafID="LF.acrf.001">
            <def:PDFPageRef PageRefs="20" Type="PhysicalRef"/>
          </def:DocumentRef>
        </def:Origin>
      </ItemDef>
      <ItemDef OID="IT.EX.EXENDY" Name="EXENDY" DataType="integer" Length="2" SASFieldName="EXENDY">
        <Description>
          <TranslatedText xml:lang="en">Study Day of End of Treatment</TranslatedText>
        </Description>
        <def:Origin Type="Derived"/>
      </ItemDef>
      <ItemDef OID="IT.EX.EXSEQ" Name="EXSEQ" DataType="integer" Length="1" SASFieldName="EXSEQ">
        <Description>
          <TranslatedText xml:lang="en">Sequence Number</TranslatedText>
        </Description>
        <def:Origin Type="Derived"/>
      </ItemDef>
      <ItemDef OID="IT.EX.EXSTDTC" Name="EXSTDTC" DataType="date" SASFieldName="EXSTDTC">
        <Description>
          <TranslatedText xml:lang="en">Start Date/Time of Treatment</TranslatedText>
        </Description>
        <def:Origin Type="CRF">
          <def:DocumentRef leafID="LF.acrf.001">
            <def:PDFPageRef PageRefs="20" Type="PhysicalRef"/>
          </def:DocumentRef>
        </def:Origin>
      </ItemDef>
      <ItemDef OID="IT.EX.EXSTDY" Name="EXSTDY" DataType="integer" Length="2" SASFieldName="EXSTDY">
        <Description>
          <TranslatedText xml:lang="en">Study Day of Start of Treatment</TranslatedText>
        </Description>
        <def:Origin Type="Derived"/>
      </ItemDef>
      <ItemDef OID="IT.EX.EXTRT" Name="EXTRT" DataType="text" Length="20" SASFieldName="EXTRT">
        <Description>
          <TranslatedText xml:lang="en">Name of Actual Treatment</TranslatedText>
        </Description>
        <CodeListRef CodeListOID="CL.EXTRT"/>
        <def:Origin Type="Derived"/>
      </ItemDef>
      <ItemDef OID="IT.EX.STUDYID" Name="STUDYID" DataType="text" Length="7" SASFieldName="STUDYID">
        <Description>
          <TranslatedText xml:lang="en">Study Identifier</TranslatedText>
        </Description>
        <def:Origin Type="Protocol"/>
      </ItemDef>
      <ItemDef OID="IT.EX.USUBJID" Name="USUBJID" DataType="text" Length="14" SASFieldName="USUBJID">
        <Description>
          <TranslatedText xml:lang="en">Unique Subject Identifier</TranslatedText>
        </Description>
        <def:Origin Type="Derived"/>
      </ItemDef>
      <ItemDef OID="IT.IE.DOMAIN" Name="DOMAIN" DataType="text" Length="2" SASFieldName="DOMAIN">
        <Description>
          <TranslatedText xml:lang="en">Domain Abbreviation</TranslatedText>
        </Description>
        <CodeListRef CodeListOID="CL.IEDOM"/>
        <def:Origin Type="Assigned"/>
      </ItemDef>
      <ItemDef OID="IT.IE.IECAT" Name="IECAT" DataType="text" Length="9" SASFieldName="IECAT">
        <Description>
          <TranslatedText xml:lang="en">Inclusion/Exclusion Category</TranslatedText>
        </Description>
        <def:Origin Type="CRF">
          <def:DocumentRef leafID="LF.acrf.001">
            <def:PDFPageRef FirstPage="4" LastPage="5" Type="PhysicalRef"/>
          </def:DocumentRef>
        </def:Origin>
      </ItemDef>
      <ItemDef OID="IT.IE.IEDTC" Name="IEDTC" DataType="date" SASFieldName="IEDTC">
        <Description>
          <TranslatedText xml:lang="en">Date/Time of Collection</TranslatedText>
        </Description>
        <def:Origin Type="CRF">
          <def:DocumentRef leafID="LF.acrf.001">
            <def:PDFPageRef FirstPage="4" LastPage="5" Type="PhysicalRef"/>
          </def:DocumentRef>
        </def:Origin>
      </ItemDef>
      <ItemDef OID="IT.IE.IEORRES" Name="IEORRES" DataType="text" Length="1" SASFieldName="IEORRES">
        <Description>
          <TranslatedText xml:lang="en">I/E Criterion Original Result</TranslatedText>
        </Description>
        <def:Origin Type="CRF">
          <def:DocumentRef leafID="LF.acrf.001">
            <def:PDFPageRef FirstPage="4" LastPage="5" Type="PhysicalRef"/>
          </def:DocumentRef>
        </def:Origin>
        <def:ValueListRef ValueListOID="VL.IE.IEORRES"/>
      </ItemDef>
      <ItemDef OID="IT.IE.IESEQ" Name="IESEQ" DataType="integer" Length="1" SASFieldName="IESEQ">
        <Description>
          <TranslatedText xml:lang="en">Sequence Number</TranslatedText>
        </Description>
        <def:Origin Type="Derived"/>
      </ItemDef>
      <ItemDef OID="IT.IE.IESTRESC" Name="IESTRESC" DataType="text" Length="1" SASFieldName="IESTRESC">
        <Description>
          <TranslatedText xml:lang="en">I/E Criterion Result in Std Format</TranslatedText>
        </Description>
        <def:Origin Type="Derived"/>
      </ItemDef>
      <ItemDef OID="IT.IE.IETEST" Name="IETEST" DataType="text" Length="54" SASFieldName="IETEST">
        <Description>
          <TranslatedText xml:lang="en">Inclusion/Exclusion Criterion</TranslatedText>
        </Description>
        <CodeListRef CodeListOID="CL.IETEST"/>
        <def:Origin Type="CRF">
          <def:DocumentRef leafID="LF.acrf.001">
            <def:PDFPageRef FirstPage="4" LastPage="5" Type="PhysicalRef"/>
          </def:DocumentRef>
        </def:Origin>
      </ItemDef>
      <ItemDef OID="IT.IE.IETESTCD" Name="IETESTCD" DataType="text" Length="6" SASFieldName="IETESTCD">
        <Description>
          <TranslatedText xml:lang="en">Inclusion/Exclusion Criterion Short Name</TranslatedText>
        </Description>
        <CodeListRef CodeListOID="CL.IETESTC"/>
        <def:Origin Type="Assigned"/>
      </ItemDef>
      <ItemDef OID="IT.IE.STUDYID" Name="STUDYID" DataType="text" Length="7" SASFieldName="STUDYID">
        <Description>
          <TranslatedText xml:lang="en">Study Identifier</TranslatedText>
        </Description>
        <def:Origin Type="Protocol"/>
      </ItemDef>
      <ItemDef OID="IT.IE.USUBJID" Name="USUBJID" DataType="text" Length="14" SASFieldName="USUBJID">
        <Description>
          <TranslatedText xml:lang="en">Unique Subject Identifier</TranslatedText>
        </Description>
        <def:Origin Type="Derived"/>
      </ItemDef>
      <ItemDef OID="IT.IE.VISIT" Name="VISIT" DataType="text" Length="6" SASFieldName="VISIT">
        <Description>
          <TranslatedText xml:lang="en">Visit Name</TranslatedText>
        </Description>
        <def:Origin Type="Assigned"/>
      </ItemDef>
      <ItemDef OID="IT.IE.VISITNUM" Name="VISITNUM" DataType="integer" Length="1" SASFieldName="VISITNUM" def:CommentOID="COM.IE.VISITNUM">
        <Description>
          <TranslatedText xml:lang="en">Visit Number</TranslatedText>
        </Description>
        <def:Origin Type="Assigned"/>
      </ItemDef>
      <ItemDef OID="IT.LB.DOMAIN" Name="DOMAIN" DataType="text" Length="2" SASFieldName="DOMAIN">
        <Description>
          <TranslatedText xml:lang="en">Domain Abbreviation</TranslatedText>
        </Description>
        <CodeListRef CodeListOID="CL.LBDOM"/>
        <def:Origin Type="Assigned"/>
      </ItemDef>
      <ItemDef OID="IT.LB.LBBLFL" Name="LBBLFL" DataType="text" Length="1" SASFieldName="LBBLFL">
        <Description>
          <TranslatedText xml:lang="en">Baseline Flag</TranslatedText>
        </Description>
        <CodeListRef CodeListOID="CL.NY"/>
        <def:Origin Type="Derived"/>
      </ItemDef>
      <ItemDef OID="IT.LB.LBCAT" Name="LBCAT" DataType="text" Length="10" SASFieldName="LBCAT">
        <Description>
          <TranslatedText xml:lang="en">Category for Lab Test</TranslatedText>
        </Description>
        <def:Origin Type="eDT"/>
      </ItemDef>
      <ItemDef OID="IT.LB.LBDTC" Name="LBDTC" DataType="datetime" SASFieldName="LBDTC">
        <Description>
          <TranslatedText xml:lang="en">Date/Time of Specimen Collection</TranslatedText>
        </Description>
        <def:Origin Type="eDT"/>
      </ItemDef>
      <ItemDef OID="IT.LB.LBDY" Name="LBDY" DataType="integer" Length="3" SASFieldName="LBDY">
        <Description>
          <TranslatedText xml:lang="en">Study Day of Specimen Collection</TranslatedText>
        </Description>
        <def:Origin Type="Derived"/>
      </ItemDef>
      <ItemDef OID="IT.LB.LBFAST" Name="LBFAST" DataType="text" Length="1" SASFieldName="LBFAST">
        <Description>
          <TranslatedText xml:lang="en">Fasting Status</TranslatedText>
        </Description>
        <CodeListRef CodeListOID="CL.NY"/>
        <def:Origin Type="eDT"/>
      </ItemDef>
      <ItemDef OID="IT.LB.LBMETHOD" Name="LBMETHOD" DataType="text" Length="8" SASFieldName="LBMETHOD">
        <Description>
          <TranslatedText xml:lang="en">Method of Test or Examination</TranslatedText>
        </Description>
        <CodeListRef CodeListOID="CL.METHOD"/>
        <def:Origin Type="eDT"/>
      </ItemDef>
      <ItemDef OID="IT.LB.LBNRIND" Name="LBNRIND" DataType="text" Length="20" SASFieldName="LBNRIND">
        <Description>
          <TranslatedText xml:lang="en">Reference Range Indicator</TranslatedText>
        </Description>
        <CodeListRef CodeListOID="CL.NRIND"/>
        <def:Origin Type="Derived"/>
      </ItemDef>
      <ItemDef OID="IT.LB.LBORNRHI" Name="LBORNRHI" DataType="text" Length="8" SASFieldName="LBORNRHI">
        <Description>
          <TranslatedText xml:lang="en">Reference Range Upper Limit in Orig Unit</TranslatedText>
        </Description>
        <def:Origin Type="eDT"/>
      </ItemDef>
      <ItemDef OID="IT.LB.LBORNRLO" Name="LBORNRLO" DataType="text" Length="8" SASFieldName="LBORNRLO">
        <Description>
          <TranslatedText xml:lang="en">Reference Range Lower Limit in Orig Unit</TranslatedText>
        </Description>
        <def:Origin Type="eDT"/>
      </ItemDef>
      <ItemDef OID="IT.LB.LBORRES" Name="LBORRES" DataType="text" Length="8" SASFieldName="LBORRES">
        <Description>
          <TranslatedText xml:lang="en">Result or Finding in Original Units</TranslatedText>
        </Description>
        <def:Origin Type="eDT"/>
        <def:ValueListRef ValueListOID="VL.LB.LBORRES"/>
      </ItemDef>
      <ItemDef OID="IT.LB.LBORRESU" Name="LBORRESU" DataType="text" Length="7" SASFieldName="LBORRESU">
        <Description>
          <TranslatedText xml:lang="en">Original Units</TranslatedText>
        </Description>
        <CodeListRef CodeListOID="CL.LBRESU"/>
        <def:Origin Type="eDT"/>
      </ItemDef>
      <ItemDef OID="IT.LB.LBREFID" Name="LBREFID" DataType="text" Length="7" SASFieldName="LBREFID" def:CommentOID="COM.LB.LBREFID">
        <Description>
          <TranslatedText xml:lang="en">Specimen ID</TranslatedText>
        </Description>
        <def:Origin Type="eDT"/>
      </ItemDef>
      <ItemDef OID="IT.LB.LBSEQ" Name="LBSEQ" DataType="integer" Length="2" SASFieldName="LBSEQ">
        <Description>
          <TranslatedText xml:lang="en">Sequence Number</TranslatedText>
        </Description>
        <def:Origin Type="Derived"/>
      </ItemDef>
      <ItemDef OID="IT.LB.LBSPEC" Name="LBSPEC" DataType="text" Length="5" SASFieldName="LBSPEC">
        <Description>
          <TranslatedText xml:lang="en">Specimen Type</TranslatedText>
        </Description>
        <CodeListRef CodeListOID="CL.SPECTYP"/>
        <def:Origin Type="eDT"/>
      </ItemDef>
      <ItemDef OID="IT.LB.LBSTNRC" Name="LBSTNRC" DataType="text" Length="19" SASFieldName="LBSTNRC">
        <Description>
          <TranslatedText xml:lang="en">Reference Range for Char Rslt-Std Units</TranslatedText>
        </Description>
        <def:Origin Type="eDT"/>
      </ItemDef>
      <ItemDef OID="IT.LB.LBSTNRHI" Name="LBSTNRHI" DataType="float" Length="4" SignificantDigits="2" SASFieldName="LBSTNRHI" def:DisplayFormat="4.2">
        <Description>
          <TranslatedText xml:lang="en">Reference Range Upper Limit-Std Units</TranslatedText>
        </Description>
        <def:Origin Type="eDT"/>
      </ItemDef>
      <ItemDef OID="IT.LB.LBSTNRLO" Name="LBSTNRLO" DataType="float" Length="4" SignificantDigits="2" SASFieldName="LBSTNRLO" def:DisplayFormat="4.2">
        <Description>
          <TranslatedText xml:lang="en">Reference Range Lower Limit-Std Units</TranslatedText>
        </Description>
        <def:Origin Type="eDT"/>
      </ItemDef>
      <ItemDef OID="IT.LB.LBSTRESC" Name="LBSTRESC" DataType="text" Length="8" SASFieldName="LBSTRESC">
        <Description>
          <TranslatedText xml:lang="en">Character Result/Finding in Std Format</TranslatedText>
        </Description>
        <def:Origin Type="eDT"/>
      </ItemDef>
      <ItemDef OID="IT.LB.LBSTRESN" Name="LBSTRESN" DataType="float" Length="5" SignificantDigits="2" SASFieldName="LBSTRESN" def:DisplayFormat="5.2">
        <Description>
          <TranslatedText xml:lang="en">Numeric Result/Finding in Standard Units</TranslatedText>
        </Description>
        <def:Origin Type="eDT"/>
      </ItemDef>
      <ItemDef OID="IT.LB.LBSTRESU" Name="LBSTRESU" DataType="text" Length="7" SASFieldName="LBSTRESU">
        <Description>
          <TranslatedText xml:lang="en">Standard Units</TranslatedText>
        </Description>
        <def:Origin Type="eDT"/>
      </ItemDef>
      <ItemDef OID="IT.LB.LBTEST" Name="LBTEST" DataType="text" Length="22" SASFieldName="LBTEST">
        <Description>
          <TranslatedText xml:lang="en">Lab Test or Examination Name</TranslatedText>
        </Description>
        <CodeListRef CodeListOID="CL.LBTEST"/>
        <def:Origin Type="eDT"/>
      </ItemDef>
      <ItemDef OID="IT.LB.LBTESTCD" Name="LBTESTCD" DataType="text" Length="7" SASFieldName="LBTESTCD">
        <Description>
          <TranslatedText xml:lang="en">Lab Test or Examination Short Name</TranslatedText>
        </Description>
        <CodeListRef CodeListOID="CL.LBTESTC"/>
        <def:Origin Type="Assigned"/>
      </ItemDef>
      <ItemDef OID="IT.LB.STUDYID" Name="STUDYID" DataType="text" Length="7" SASFieldName="STUDYID">
        <Description>
          <TranslatedText xml:lang="en">Study Identifier</TranslatedText>
        </Description>
        <def:Origin Type="Protocol"/>
      </ItemDef>
      <ItemDef OID="IT.LB.USUBJID" Name="USUBJID" DataType="text" Length="14" SASFieldName="USUBJID">
        <Description>
          <TranslatedText xml:lang="en">Unique Subject Identifier</TranslatedText>
        </Description>
        <def:Origin Type="Derived"/>
      </ItemDef>
      <ItemDef OID="IT.LB.VISIT" Name="VISIT" DataType="text" Length="7" SASFieldName="VISIT">
        <Description>
          <TranslatedText xml:lang="en">Visit Name</TranslatedText>
        </Description>
        <def:Origin Type="eDT"/>
      </ItemDef>
      <ItemDef OID="IT.LB.VISITDY" Name="VISITDY" DataType="integer" Length="3" SASFieldName="VISITDY">
        <Description>
          <TranslatedText xml:lang="en">Planned Study Day of Visit</TranslatedText>
        </Description>
        <def:Origin Type="Protocol"/>
      </ItemDef>
      <ItemDef OID="IT.LB.VISITNUM" Name="VISITNUM" DataType="integer" Length="2" SASFieldName="VISITNUM">
        <Description>
          <TranslatedText xml:lang="en">Visit Number</TranslatedText>
        </Description>
        <def:Origin Type="eDT"/>
      </ItemDef>
      <ItemDef OID="IT.MH.DOMAIN" Name="DOMAIN" DataType="text" Length="2" SASFieldName="DOMAIN">
        <Description>
          <TranslatedText xml:lang="en">Domain Abbreviation</TranslatedText>
        </Description>
        <CodeListRef CodeListOID="CL.MHDOM"/>
        <def:Origin Type="Assigned"/>
      </ItemDef>
      <ItemDef OID="IT.MH.MHBODSYS" Name="MHBODSYS" DataType="text" Length="23" SASFieldName="MHBODSYS" def:CommentOID="COM.MH.MHBODSYS">
        <Description>
          <TranslatedText xml:lang="en">Body System or Organ Class</TranslatedText>
        </Description>
        <CodeListRef CodeListOID="CL.MHBODSS"/>
        <def:Origin Type="Assigned"/>
      </ItemDef>
      <ItemDef OID="IT.MH.MHCAT" Name="MHCAT" DataType="text" Length="28" SASFieldName="MHCAT">
        <Description>
          <TranslatedText xml:lang="en">Category for Medical History</TranslatedText>
        </Description>
        <CodeListRef CodeListOID="CL.MHCAT"/>
        <def:Origin Type="CRF">
          <def:DocumentRef leafID="LF.acrf.001">
            <def:PDFPageRef FirstPage="7" LastPage="8" Type="PhysicalRef"/>
          </def:DocumentRef>
        </def:Origin>
      </ItemDef>
      <ItemDef OID="IT.MH.MHDTC" Name="MHDTC" DataType="date" SASFieldName="MHDTC">
        <Description>
          <TranslatedText xml:lang="en">Date/Time of History Collection</TranslatedText>
        </Description>
        <def:Origin Type="CRF">
          <def:DocumentRef leafID="LF.acrf.001">
            <def:PDFPageRef FirstPage="7" LastPage="8" Type="PhysicalRef"/>
          </def:DocumentRef>
        </def:Origin>
      </ItemDef>
      <ItemDef OID="IT.MH.MHENRF" Name="MHENRF" DataType="text" Length="30" SASFieldName="MHENRF" def:CommentOID="COM.MH.MHENRF">
        <Description>
          <TranslatedText xml:lang="en">End Relative to Reference Period</TranslatedText>
        </Description>
        <CodeListRef CodeListOID="CL.MHENRF"/>
        <def:Origin Type="CRF">
          <def:DocumentRef leafID="LF.acrf.001">
            <def:PDFPageRef PageRefs="8" Type="PhysicalRef"/>
          </def:DocumentRef>
        </def:Origin>
      </ItemDef>
      <ItemDef OID="IT.MH.MHOCCUR" Name="MHOCCUR" DataType="text" Length="2" SASFieldName="MHOCCUR">
        <Description>
          <TranslatedText xml:lang="en">Medical History Occurrence</TranslatedText>
        </Description>
        <CodeListRef CodeListOID="CL.NY"/>
        <def:Origin Type="Assigned"/>
      </ItemDef>
      <ItemDef OID="IT.MH.MHPRESP" Name="MHPRESP" DataType="text" Length="2" SASFieldName="MHPRESP">
        <Description>
          <TranslatedText xml:lang="en">Medical History Event Pre-Specified</TranslatedText>
        </Description>
        <CodeListRef CodeListOID="CL.NY"/>
        <def:Origin Type="Assigned"/>
      </ItemDef>
      <ItemDef OID="IT.MH.MHSEQ" Name="MHSEQ" DataType="integer" Length="1" SASFieldName="MHSEQ">
        <Description>
          <TranslatedText xml:lang="en">Sequence Number</TranslatedText>
        </Description>
        <def:Origin Type="Derived"/>
      </ItemDef>
      <ItemDef OID="IT.MH.MHSTDTC" Name="MHSTDTC" DataType="date" SASFieldName="MHSTDTC">
        <Description>
          <TranslatedText xml:lang="en">Start Date/Time of Medical History Event</TranslatedText>
        </Description>
        <def:Origin Type="CRF">
          <def:DocumentRef leafID="LF.acrf.001">
            <def:PDFPageRef FirstPage="7" LastPage="8" Type="PhysicalRef"/>
          </def:DocumentRef>
        </def:Origin>
      </ItemDef>
      <ItemDef OID="IT.MH.MHTERM" Name="MHTERM" DataType="text" Length="169" SASFieldName="MHTERM">
        <Description>
          <TranslatedText xml:lang="en">Reported Term for the Medical History</TranslatedText>
        </Description>
        <def:Origin Type="CRF">
          <def:DocumentRef leafID="LF.acrf.001">
            <def:PDFPageRef FirstPage="7" LastPage="8" Type="PhysicalRef"/>
          </def:DocumentRef>
        </def:Origin>
      </ItemDef>
      <ItemDef OID="IT.MH.STUDYID" Name="STUDYID" DataType="text" Length="7" SASFieldName="STUDYID">
        <Description>
          <TranslatedText xml:lang="en">Study Identifier</TranslatedText>
        </Description>
        <def:Origin Type="Protocol"/>
      </ItemDef>
      <ItemDef OID="IT.MH.USUBJID" Name="USUBJID" DataType="text" Length="14" SASFieldName="USUBJID">
        <Description>
          <TranslatedText xml:lang="en">Unique Subject Identifier</TranslatedText>
        </Description>
        <def:Origin Type="Derived"/>
      </ItemDef>
      <ItemDef OID="IT.PE.DOMAIN" Name="DOMAIN" DataType="text" Length="2" SASFieldName="DOMAIN">
        <Description>
          <TranslatedText xml:lang="en">Domain Abbreviation</TranslatedText>
        </Description>
        <CodeListRef CodeListOID="CL.PEDOM"/>
        <def:Origin Type="Assigned"/>
      </ItemDef>
      <ItemDef OID="IT.PE.PEDTC" Name="PEDTC" DataType="date" SASFieldName="PEDTC">
        <Description>
          <TranslatedText xml:lang="en">Date/Time of Examination</TranslatedText>
        </Description>
        <def:Origin Type="CRF">
          <def:DocumentRef leafID="LF.acrf.001">
            <def:PDFPageRef PageRefs="10" Type="PhysicalRef"/>
          </def:DocumentRef>
        </def:Origin>
      </ItemDef>
      <ItemDef OID="IT.PE.PEDY" Name="PEDY" DataType="integer" Length="3" SASFieldName="PEDY">
        <Description>
          <TranslatedText xml:lang="en">Study Day of Examination</TranslatedText>
        </Description>
        <def:Origin Type="Derived"/>
      </ItemDef>
      <ItemDef OID="IT.PE.PEORRES" Name="PEORRES" DataType="text" Length="36" SASFieldName="PEORRES">
        <Description>
          <TranslatedText xml:lang="en">Verbatim Examination Finding</TranslatedText>
        </Description>
        <def:Origin Type="CRF">
          <def:DocumentRef leafID="LF.acrf.001">
            <def:PDFPageRef PageRefs="10" Type="PhysicalRef"/>
          </def:DocumentRef>
        </def:Origin>
        <def:ValueListRef ValueListOID="VL.PE.PEORRES"/>
      </ItemDef>
      <ItemDef OID="IT.PE.PESEQ" Name="PESEQ" DataType="integer" Length="2" SASFieldName="PESEQ">
        <Description>
          <TranslatedText xml:lang="en">Sequence Number</TranslatedText>
        </Description>
        <def:Origin Type="Derived"/>
      </ItemDef>
      <ItemDef OID="IT.PE.PESTRESC" Name="PESTRESC" DataType="text" Length="26" SASFieldName="PESTRESC">
        <Description>
          <TranslatedText xml:lang="en">Character Result/Finding in Std Format</TranslatedText>
        </Description>
        <def:Origin Type="Derived"/>
      </ItemDef>
      <ItemDef OID="IT.PE.PETEST" Name="PETEST" DataType="text" Length="29" SASFieldName="PETEST">
        <Description>
          <TranslatedText xml:lang="en">Body System Examined</TranslatedText>
        </Description>
        <CodeListRef CodeListOID="CL.PETEST"/>
        <def:Origin Type="CRF">
          <def:DocumentRef leafID="LF.acrf.001">
            <def:PDFPageRef PageRefs="10" Type="PhysicalRef"/>
          </def:DocumentRef>
        </def:Origin>
      </ItemDef>
      <ItemDef OID="IT.PE.PETESTCD" Name="PETESTCD" DataType="text" Length="4" SASFieldName="PETESTCD">
        <Description>
          <TranslatedText xml:lang="en">Body System Examined Short Name</TranslatedText>
        </Description>
        <CodeListRef CodeListOID="CL.PETESTC"/>
        <def:Origin Type="Assigned"/>
      </ItemDef>
      <ItemDef OID="IT.PE.STUDYID" Name="STUDYID" DataType="text" Length="7" SASFieldName="STUDYID">
        <Description>
          <TranslatedText xml:lang="en">Study Identifier</TranslatedText>
        </Description>
        <def:Origin Type="Protocol"/>
      </ItemDef>
      <ItemDef OID="IT.PE.USUBJID" Name="USUBJID" DataType="text" Length="14" SASFieldName="USUBJID">
        <Description>
          <TranslatedText xml:lang="en">Unique Subject Identifier</TranslatedText>
        </Description>
        <def:Origin Type="Derived"/>
      </ItemDef>
      <ItemDef OID="IT.PE.VISIT" Name="VISIT" DataType="text" Length="7" SASFieldName="VISIT">
        <Description>
          <TranslatedText xml:lang="en">Visit Name</TranslatedText>
        </Description>
        <def:Origin Type="Assigned"/>
      </ItemDef>
      <ItemDef OID="IT.PE.VISITDY" Name="VISITDY" DataType="integer" Length="3" SASFieldName="VISITDY">
        <Description>
          <TranslatedText xml:lang="en">Planned Study Day of Visit</TranslatedText>
        </Description>
        <def:Origin Type="Protocol"/>
      </ItemDef>
      <ItemDef OID="IT.PE.VISITNUM" Name="VISITNUM" DataType="integer" Length="2" SASFieldName="VISITNUM" def:CommentOID="COM.PE.VISITNUM">
        <Description>
          <TranslatedText xml:lang="en">Visit Number</TranslatedText>
        </Description>
        <def:Origin Type="Assigned"/>
      </ItemDef>
      <ItemDef OID="IT.QSCG.DOMAIN" Name="DOMAIN" DataType="text" Length="2" SASFieldName="DOMAIN">
        <Description>
          <TranslatedText xml:lang="en">Domain Abbreviation</TranslatedText>
        </Description>
        <CodeListRef CodeListOID="CL.QSDOM"/>
        <def:Origin Type="Assigned"/>
      </ItemDef>
      <ItemDef OID="IT.QSCG.QSCAT" Name="QSCAT" DataType="text" Length="50" SASFieldName="QSCAT">
        <Description>
          <TranslatedText xml:lang="en">Category of Question</TranslatedText>
        </Description>
        <def:Origin Type="CRF">
          <def:DocumentRef leafID="LF.acrf.001">
            <def:PDFPageRef PageRefs="17" Type="PhysicalRef"/>
          </def:DocumentRef>
        </def:Origin>
      </ItemDef>
      <ItemDef OID="IT.QSCG.QSDTC" Name="QSDTC" DataType="date" SASFieldName="QSDTC">
        <Description>
          <TranslatedText xml:lang="en">Date/Time of Finding</TranslatedText>
        </Description>
        <def:Origin Type="CRF">
          <def:DocumentRef leafID="LF.acrf.001">
            <def:PDFPageRef PageRefs="17" Type="PhysicalRef"/>
          </def:DocumentRef>
        </def:Origin>
      </ItemDef>
      <ItemDef OID="IT.QSCG.QSDY" Name="QSDY" DataType="integer" Length="3" SASFieldName="QSDY">
        <Description>
          <TranslatedText xml:lang="en">Study Day of Finding</TranslatedText>
        </Description>
        <def:Origin Type="Derived"/>
      </ItemDef>
      <ItemDef OID="IT.QSCG.QSORRES" Name="QSORRES" DataType="text" Length="20" SASFieldName="QSORRES">
        <Description>
          <TranslatedText xml:lang="en">Finding in Original Units</TranslatedText>
        </Description>
        <def:Origin Type="CRF">
          <def:DocumentRef leafID="LF.acrf.001">
            <def:PDFPageRef PageRefs="17" Type="PhysicalRef"/>
          </def:DocumentRef>
        </def:Origin>
        <def:ValueListRef ValueListOID="VL.QSCG.QSORRES"/>
      </ItemDef>
      <ItemDef OID="IT.QSCG.QSSEQ" Name="QSSEQ" DataType="integer" Length="3" SASFieldName="QSSEQ">
        <Description>
          <TranslatedText xml:lang="en">Sequence Number</TranslatedText>
        </Description>
        <def:Origin Type="Derived"/>
      </ItemDef>
      <ItemDef OID="IT.QSCG.QSSTRESC" Name="QSSTRESC" DataType="text" Length="2" SASFieldName="QSSTRESC">
        <Description>
          <TranslatedText xml:lang="en">Character Result/Finding in Std Format</TranslatedText>
        </Description>
        <def:Origin Type="Derived"/>
      </ItemDef>
      <ItemDef OID="IT.QSCG.QSSTRESN" Name="QSSTRESN" DataType="integer" Length="2" SASFieldName="QSSTRESN">
        <Description>
          <TranslatedText xml:lang="en">Numeric Finding in Standard Units</TranslatedText>
        </Description>
        <def:Origin Type="Derived"/>
      </ItemDef>
      <ItemDef OID="IT.QSCG.QSTEST" Name="QSTEST" DataType="text" Length="37" SASFieldName="QSTEST">
        <Description>
          <TranslatedText xml:lang="en">Question Name</TranslatedText>
        </Description>
        <CodeListRef CodeListOID="CL.QSTEST"/>
        <def:Origin Type="CRF">
          <def:DocumentRef leafID="LF.acrf.001">
            <def:PDFPageRef PageRefs="17" Type="PhysicalRef"/>
          </def:DocumentRef>
        </def:Origin>
      </ItemDef>
      <ItemDef OID="IT.QSCG.QSTESTCD" Name="QSTESTCD" DataType="text" Length="7" SASFieldName="QSTESTCD">
        <Description>
          <TranslatedText xml:lang="en">Question Short Name</TranslatedText>
        </Description>
        <CodeListRef CodeListOID="CL.QSTESTC"/>
        <def:Origin Type="Assigned"/>
      </ItemDef>
      <ItemDef OID="IT.QSCG.STUDYID" Name="STUDYID" DataType="text" Length="7" SASFieldName="STUDYID">
        <Description>
          <TranslatedText xml:lang="en">Study Identifier</TranslatedText>
        </Description>
        <def:Origin Type="Protocol"/>
      </ItemDef>
      <ItemDef OID="IT.QSCG.USUBJID" Name="USUBJID" DataType="text" Length="14" SASFieldName="USUBJID">
        <Description>
          <TranslatedText xml:lang="en">Unique Subject Identifier</TranslatedText>
        </Description>
        <def:Origin Type="Derived"/>
      </ItemDef>
      <ItemDef OID="IT.QSCG.VISIT" Name="VISIT" DataType="text" Length="8" SASFieldName="VISIT">
        <Description>
          <TranslatedText xml:lang="en">Visit Name</TranslatedText>
        </Description>
        <def:Origin Type="Assigned"/>
      </ItemDef>
      <ItemDef OID="IT.QSCG.VISITDY" Name="VISITDY" DataType="integer" Length="3" SASFieldName="VISITDY">
        <Description>
          <TranslatedText xml:lang="en">Planned Study Day of Visit</TranslatedText>
        </Description>
        <def:Origin Type="Protocol"/>
      </ItemDef>
      <ItemDef OID="IT.QSCG.VISITNUM" Name="VISITNUM" DataType="integer" Length="2" SASFieldName="VISITNUM" def:CommentOID="COM.QSCG.VISITNUM">
        <Description>
          <TranslatedText xml:lang="en">Visit Number</TranslatedText>
        </Description>
        <def:Origin Type="Assigned"/>
      </ItemDef>
      <ItemDef OID="IT.QSCS.DOMAIN" Name="DOMAIN" DataType="text" Length="2" SASFieldName="DOMAIN">
        <Description>
          <TranslatedText xml:lang="en">Domain Abbreviation</TranslatedText>
        </Description>
        <CodeListRef CodeListOID="CL.QSDOM"/>
        <def:Origin Type="Assigned"/>
      </ItemDef>
      <ItemDef OID="IT.QSCS.QSBLFL" Name="QSBLFL" DataType="text" Length="1" SASFieldName="QSBLFL">
        <Description>
          <TranslatedText xml:lang="en">Baseline Flag</TranslatedText>
        </Description>
        <CodeListRef CodeListOID="CL.NY"/>
        <def:Origin Type="Derived"/>
      </ItemDef>
      <ItemDef OID="IT.QSCS.QSCAT" Name="QSCAT" DataType="text" Length="50" SASFieldName="QSCAT">
        <Description>
          <TranslatedText xml:lang="en">Category of Question</TranslatedText>
        </Description>
        <def:Origin Type="CRF">
          <def:DocumentRef leafID="LF.acrf.001">
            <def:PDFPageRef PageRefs="17" Type="PhysicalRef"/>
          </def:DocumentRef>
        </def:Origin>
      </ItemDef>
      <ItemDef OID="IT.QSCS.QSDTC" Name="QSDTC" DataType="date" SASFieldName="QSDTC">
        <Description>
          <TranslatedText xml:lang="en">Date/Time of Finding</TranslatedText>
        </Description>
        <def:Origin Type="CRF">
          <def:DocumentRef leafID="LF.acrf.001">
            <def:PDFPageRef PageRefs="17" Type="PhysicalRef"/>
          </def:DocumentRef>
        </def:Origin>
      </ItemDef>
      <ItemDef OID="IT.QSCS.QSDY" Name="QSDY" DataType="integer" Length="3" SASFieldName="QSDY">
        <Description>
          <TranslatedText xml:lang="en">Study Day of Finding</TranslatedText>
        </Description>
        <def:Origin Type="Derived"/>
      </ItemDef>
      <ItemDef OID="IT.QSCS.QSEVLINT" Name="QSEVLINT" DataType="text" Length="20" SASFieldName="QSEVLINT">
        <Description>
          <TranslatedText xml:lang="en">Evaluation Interval</TranslatedText>
        </Description>
        <def:Origin Type="CRF">
          <def:DocumentRef leafID="LF.acrf.001">
            <def:PDFPageRef PageRefs="14" Type="PhysicalRef"/>
          </def:DocumentRef>
        </def:Origin>
      </ItemDef>
      <ItemDef OID="IT.QSCS.QSORRES" Name="QSORRES" DataType="text" Length="20" SASFieldName="QSORRES">
        <Description>
          <TranslatedText xml:lang="en">Finding in Original Units</TranslatedText>
        </Description>
        <def:Origin Type="CRF">
          <def:DocumentRef leafID="LF.acrf.001">
            <def:PDFPageRef PageRefs="17" Type="PhysicalRef"/>
          </def:DocumentRef>
        </def:Origin>
        <def:ValueListRef ValueListOID="VL.QSCS.QSORRES"/>
      </ItemDef>
      <ItemDef OID="IT.QSCS.QSSCAT" Name="QSSCAT" DataType="text" Length="40" SASFieldName="QSSCAT">
        <Description>
          <TranslatedText xml:lang="en">Subcategory for Question</TranslatedText>
        </Description>
        <def:Origin Type="CRF">
          <def:DocumentRef leafID="LF.acrf.001">
            <def:PDFPageRef FirstPage="14" LastPage="15" Type="PhysicalRef"/>
          </def:DocumentRef>
        </def:Origin>
      </ItemDef>
      <ItemDef OID="IT.QSCS.QSSEQ" Name="QSSEQ" DataType="integer" Length="3" SASFieldName="QSSEQ">
        <Description>
          <TranslatedText xml:lang="en">Sequence Number</TranslatedText>
        </Description>
        <def:Origin Type="Derived"/>
      </ItemDef>
      <ItemDef OID="IT.QSCS.QSSTRESC" Name="QSSTRESC" DataType="text" Length="2" SASFieldName="QSSTRESC">
        <Description>
          <TranslatedText xml:lang="en">Character Result/Finding in Std Format</TranslatedText>
        </Description>
        <def:Origin Type="Derived"/>
      </ItemDef>
      <ItemDef OID="IT.QSCS.QSSTRESN" Name="QSSTRESN" DataType="integer" Length="2" SASFieldName="QSSTRESN">
        <Description>
          <TranslatedText xml:lang="en">Numeric Finding in Standard Units</TranslatedText>
        </Description>
        <def:Origin Type="Derived"/>
      </ItemDef>
      <ItemDef OID="IT.QSCS.QSTEST" Name="QSTEST" DataType="text" Length="37" SASFieldName="QSTEST">
        <Description>
          <TranslatedText xml:lang="en">Question Name</TranslatedText>
        </Description>
        <CodeListRef CodeListOID="CL.QSTEST"/>
        <def:Origin Type="CRF">
          <def:DocumentRef leafID="LF.acrf.001">
            <def:PDFPageRef PageRefs="17" Type="PhysicalRef"/>
          </def:DocumentRef>
        </def:Origin>
      </ItemDef>
      <ItemDef OID="IT.QSCS.QSTESTCD" Name="QSTESTCD" DataType="text" Length="7" SASFieldName="QSTESTCD">
        <Description>
          <TranslatedText xml:lang="en">Question Short Name</TranslatedText>
        </Description>
        <CodeListRef CodeListOID="CL.QSTESTC"/>
        <def:Origin Type="Assigned"/>
      </ItemDef>
      <ItemDef OID="IT.QSCS.STUDYID" Name="STUDYID" DataType="text" Length="7" SASFieldName="STUDYID">
        <Description>
          <TranslatedText xml:lang="en">Study Identifier</TranslatedText>
        </Description>
        <def:Origin Type="Protocol"/>
      </ItemDef>
      <ItemDef OID="IT.QSCS.USUBJID" Name="USUBJID" DataType="text" Length="14" SASFieldName="USUBJID">
        <Description>
          <TranslatedText xml:lang="en">Unique Subject Identifier</TranslatedText>
        </Description>
        <def:Origin Type="Derived"/>
      </ItemDef>
      <ItemDef OID="IT.QSCS.VISIT" Name="VISIT" DataType="text" Length="8" SASFieldName="VISIT">
        <Description>
          <TranslatedText xml:lang="en">Visit Name</TranslatedText>
        </Description>
        <def:Origin Type="Assigned"/>
      </ItemDef>
      <ItemDef OID="IT.QSCS.VISITDY" Name="VISITDY" DataType="integer" Length="3" SASFieldName="VISITDY">
        <Description>
          <TranslatedText xml:lang="en">Planned Study Day of Visit</TranslatedText>
        </Description>
        <def:Origin Type="Protocol"/>
      </ItemDef>
      <ItemDef OID="IT.QSCS.VISITNUM" Name="VISITNUM" DataType="integer" Length="2" SASFieldName="VISITNUM" def:CommentOID="COM.QSCS.VISITNUM">
        <Description>
          <TranslatedText xml:lang="en">Visit Number</TranslatedText>
        </Description>
        <def:Origin Type="Assigned"/>
      </ItemDef>
      <ItemDef OID="IT.QSMM.DOMAIN" Name="DOMAIN" DataType="text" Length="2" SASFieldName="DOMAIN">
        <Description>
          <TranslatedText xml:lang="en">Domain Abbreviation</TranslatedText>
        </Description>
        <CodeListRef CodeListOID="CL.QSDOM"/>
        <def:Origin Type="Assigned"/>
      </ItemDef>
      <ItemDef OID="IT.QSMM.QSBLFL" Name="QSBLFL" DataType="text" Length="1" SASFieldName="QSBLFL">
        <Description>
          <TranslatedText xml:lang="en">Baseline Flag</TranslatedText>
        </Description>
        <CodeListRef CodeListOID="CL.NY"/>
        <def:Origin Type="Derived"/>
      </ItemDef>
      <ItemDef OID="IT.QSMM.QSCAT" Name="QSCAT" DataType="text" Length="50" SASFieldName="QSCAT">
        <Description>
          <TranslatedText xml:lang="en">Category of Question</TranslatedText>
        </Description>
        <def:Origin Type="CRF">
          <def:DocumentRef leafID="LF.acrf.001">
            <def:PDFPageRef PageRefs="17" Type="PhysicalRef"/>
          </def:DocumentRef>
        </def:Origin>
      </ItemDef>
      <ItemDef OID="IT.QSMM.QSDTC" Name="QSDTC" DataType="date" SASFieldName="QSDTC">
        <Description>
          <TranslatedText xml:lang="en">Date/Time of Finding</TranslatedText>
        </Description>
        <def:Origin Type="CRF">
          <def:DocumentRef leafID="LF.acrf.001">
            <def:PDFPageRef PageRefs="17" Type="PhysicalRef"/>
          </def:DocumentRef>
        </def:Origin>
      </ItemDef>
      <ItemDef OID="IT.QSMM.QSDY" Name="QSDY" DataType="integer" Length="3" SASFieldName="QSDY">
        <Description>
          <TranslatedText xml:lang="en">Study Day of Finding</TranslatedText>
        </Description>
        <def:Origin Type="Derived"/>
      </ItemDef>
      <ItemDef OID="IT.QSMM.QSORRES" Name="QSORRES" DataType="text" Length="20" SASFieldName="QSORRES">
        <Description>
          <TranslatedText xml:lang="en">Finding in Original Units</TranslatedText>
        </Description>
        <def:Origin Type="CRF">
          <def:DocumentRef leafID="LF.acrf.001">
            <def:PDFPageRef PageRefs="17" Type="PhysicalRef"/>
          </def:DocumentRef>
        </def:Origin>
        <def:ValueListRef ValueListOID="VL.QSMM.QSORRES"/>
      </ItemDef>
      <ItemDef OID="IT.QSMM.QSSEQ" Name="QSSEQ" DataType="integer" Length="3" SASFieldName="QSSEQ">
        <Description>
          <TranslatedText xml:lang="en">Sequence Number</TranslatedText>
        </Description>
        <def:Origin Type="Derived"/>
      </ItemDef>
      <ItemDef OID="IT.QSMM.QSSTRESC" Name="QSSTRESC" DataType="text" Length="2" SASFieldName="QSSTRESC">
        <Description>
          <TranslatedText xml:lang="en">Character Result/Finding in Std Format</TranslatedText>
        </Description>
        <def:Origin Type="Derived"/>
      </ItemDef>
      <ItemDef OID="IT.QSMM.QSSTRESN" Name="QSSTRESN" DataType="integer" Length="2" SASFieldName="QSSTRESN">
        <Description>
          <TranslatedText xml:lang="en">Numeric Finding in Standard Units</TranslatedText>
        </Description>
        <def:Origin Type="Derived"/>
      </ItemDef>
      <ItemDef OID="IT.QSMM.QSTEST" Name="QSTEST" DataType="text" Length="37" SASFieldName="QSTEST">
        <Description>
          <TranslatedText xml:lang="en">Question Name</TranslatedText>
        </Description>
        <CodeListRef CodeListOID="CL.QSTEST"/>
        <def:Origin Type="CRF">
          <def:DocumentRef leafID="LF.acrf.001">
            <def:PDFPageRef PageRefs="17" Type="PhysicalRef"/>
          </def:DocumentRef>
        </def:Origin>
      </ItemDef>
      <ItemDef OID="IT.QSMM.QSTESTCD" Name="QSTESTCD" DataType="text" Length="7" SASFieldName="QSTESTCD">
        <Description>
          <TranslatedText xml:lang="en">Question Short Name</TranslatedText>
        </Description>
        <CodeListRef CodeListOID="CL.QSTESTC"/>
        <def:Origin Type="Assigned"/>
      </ItemDef>
      <ItemDef OID="IT.QSMM.STUDYID" Name="STUDYID" DataType="text" Length="7" SASFieldName="STUDYID">
        <Description>
          <TranslatedText xml:lang="en">Study Identifier</TranslatedText>
        </Description>
        <def:Origin Type="Protocol"/>
      </ItemDef>
      <ItemDef OID="IT.QSMM.USUBJID" Name="USUBJID" DataType="text" Length="14" SASFieldName="USUBJID">
        <Description>
          <TranslatedText xml:lang="en">Unique Subject Identifier</TranslatedText>
        </Description>
        <def:Origin Type="Derived"/>
      </ItemDef>
      <ItemDef OID="IT.QSMM.VISIT" Name="VISIT" DataType="text" Length="8" SASFieldName="VISIT">
        <Description>
          <TranslatedText xml:lang="en">Visit Name</TranslatedText>
        </Description>
        <def:Origin Type="Assigned"/>
      </ItemDef>
      <ItemDef OID="IT.QSMM.VISITDY" Name="VISITDY" DataType="integer" Length="3" SASFieldName="VISITDY">
        <Description>
          <TranslatedText xml:lang="en">Planned Study Day of Visit</TranslatedText>
        </Description>
        <def:Origin Type="Protocol"/>
      </ItemDef>
      <ItemDef OID="IT.QSMM.VISITNUM" Name="VISITNUM" DataType="integer" Length="2" SASFieldName="VISITNUM" def:CommentOID="COM.QSMM.VISITNUM">
        <Description>
          <TranslatedText xml:lang="en">Visit Number</TranslatedText>
        </Description>
        <def:Origin Type="Assigned"/>
      </ItemDef>
      <ItemDef OID="IT.RELREC.IDVAR" Name="IDVAR" DataType="text" Length="8" SASFieldName="IDVAR" def:CommentOID="COM.RELREC.IDVAR">
        <Description>
          <TranslatedText xml:lang="en">Identifying Variable</TranslatedText>
        </Description>
        <def:Origin Type="Assigned"/>
      </ItemDef>
      <ItemDef OID="IT.RELREC.IDVARVAL" Name="IDVARVAL" DataType="text" Length="2" SASFieldName="IDVARVAL" def:CommentOID="COM.RELREC.IDVARVAL">
        <Description>
          <TranslatedText xml:lang="en">Identifying Variable Value</TranslatedText>
        </Description>
        <def:Origin Type="Assigned"/>
      </ItemDef>
      <ItemDef OID="IT.RELREC.RDOMAIN" Name="RDOMAIN" DataType="text" Length="2" SASFieldName="RDOMAIN">
        <Description>
          <TranslatedText xml:lang="en">Related Domain Abbreviation</TranslatedText>
        </Description>
        <def:Origin Type="Derived"/>
      </ItemDef>
      <ItemDef OID="IT.RELREC.RELID" Name="RELID" DataType="text" Length="10" SASFieldName="RELID">
        <Description>
          <TranslatedText xml:lang="en">Relationship Identifier</TranslatedText>
        </Description>
        <def:Origin Type="Derived"/>
      </ItemDef>
      <ItemDef OID="IT.RELREC.RELTYPE" Name="RELTYPE" DataType="text" Length="4" SASFieldName="RELTYPE" def:CommentOID="COM.RELREC.RELTYPE">
        <Description>
          <TranslatedText xml:lang="en">Relationship Type</TranslatedText>
        </Description>
        <def:Origin Type="Assigned"/>
      </ItemDef>
      <ItemDef OID="IT.RELREC.STUDYID" Name="STUDYID" DataType="text" Length="7" SASFieldName="STUDYID">
        <Description>
          <TranslatedText xml:lang="en">Study Identifier</TranslatedText>
        </Description>
        <def:Origin Type="Protocol"/>
      </ItemDef>
      <ItemDef OID="IT.RELREC.USUBJID" Name="USUBJID" DataType="text" Length="14" SASFieldName="USUBJID">
        <Description>
          <TranslatedText xml:lang="en">Unique Subject Identifier</TranslatedText>
        </Description>
        <def:Origin Type="Derived"/>
      </ItemDef>
      <ItemDef OID="IT.SC.DOMAIN" Name="DOMAIN" DataType="text" Length="2" SASFieldName="DOMAIN">
        <Description>
          <TranslatedText xml:lang="en">Domain Abbreviation</TranslatedText>
        </Description>
        <CodeListRef CodeListOID="CL.SCDOM"/>
        <def:Origin Type="Assigned"/>
      </ItemDef>
      <ItemDef OID="IT.SC.SCDTC" Name="SCDTC" DataType="date" SASFieldName="SCDTC">
        <Description>
          <TranslatedText xml:lang="en">Date/Time of Collection</TranslatedText>
        </Description>
        <def:Origin Type="CRF">
          <def:DocumentRef leafID="LF.acrf.001">
            <def:PDFPageRef PageRefs="6" Type="PhysicalRef"/>
          </def:DocumentRef>
        </def:Origin>
      </ItemDef>
      <ItemDef OID="IT.SC.SCDY" Name="SCDY" DataType="integer" Length="3" SASFieldName="SCDY">
        <Description>
          <TranslatedText xml:lang="en">Study Day of Examination</TranslatedText>
        </Description>
        <def:Origin Type="Derived"/>
      </ItemDef>
      <ItemDef OID="IT.SC.SCORRES" Name="SCORRES" DataType="text" Length="24" SASFieldName="SCORRES">
        <Description>
          <TranslatedText xml:lang="en">Result or Finding in Original Units</TranslatedText>
        </Description>
        <def:Origin Type="CRF">
          <def:DocumentRef leafID="LF.acrf.001">
            <def:PDFPageRef PageRefs="3 6" Type="PhysicalRef"/>
          </def:DocumentRef>
        </def:Origin>
        <def:ValueListRef ValueListOID="VL.SC.SCORRES"/>
      </ItemDef>
      <ItemDef OID="IT.SC.SCSEQ" Name="SCSEQ" DataType="integer" Length="1" SASFieldName="SCSEQ">
        <Description>
          <TranslatedText xml:lang="en">Sequence Number</TranslatedText>
        </Description>
        <def:Origin Type="Derived"/>
      </ItemDef>
      <ItemDef OID="IT.SC.SCSTRESC" Name="SCSTRESC" DataType="text" Length="24" SASFieldName="SCSTRESC">
        <Description>
          <TranslatedText xml:lang="en">Character Result/Finding in Std Format</TranslatedText>
        </Description>
        <def:Origin Type="Derived"/>
      </ItemDef>
      <ItemDef OID="IT.SC.SCTEST" Name="SCTEST" DataType="text" Length="16" SASFieldName="SCTEST">
        <Description>
          <TranslatedText xml:lang="en">Subject Characteristic</TranslatedText>
        </Description>
        <CodeListRef CodeListOID="CL.SCTEST"/>
        <def:Origin Type="CRF">
          <def:DocumentRef leafID="LF.acrf.001">
            <def:PDFPageRef PageRefs="6" Type="PhysicalRef"/>
          </def:DocumentRef>
        </def:Origin>
      </ItemDef>
      <ItemDef OID="IT.SC.SCTESTCD" Name="SCTESTCD" DataType="text" Length="8" SASFieldName="SCTESTCD">
        <Description>
          <TranslatedText xml:lang="en">Subject Characteristic Short Name</TranslatedText>
        </Description>
        <CodeListRef CodeListOID="CL.SCTESTC"/>
        <def:Origin Type="Assigned"/>
      </ItemDef>
      <ItemDef OID="IT.SC.STUDYID" Name="STUDYID" DataType="text" Length="7" SASFieldName="STUDYID">
        <Description>
          <TranslatedText xml:lang="en">Study Identifier</TranslatedText>
        </Description>
        <def:Origin Type="Protocol"/>
      </ItemDef>
      <ItemDef OID="IT.SC.USUBJID" Name="USUBJID" DataType="text" Length="14" SASFieldName="USUBJID">
        <Description>
          <TranslatedText xml:lang="en">Unique Subject Identifier</TranslatedText>
        </Description>
        <def:Origin Type="Derived"/>
      </ItemDef>
      <ItemDef OID="IT.SE.DOMAIN" Name="DOMAIN" DataType="text" Length="2" SASFieldName="DOMAIN">
        <Description>
          <TranslatedText xml:lang="en">Domain Abbreviation</TranslatedText>
        </Description>
        <CodeListRef CodeListOID="CL.SEDOM"/>
        <def:Origin Type="Assigned"/>
      </ItemDef>
      <ItemDef OID="IT.SE.ELEMENT" Name="ELEMENT" DataType="text" Length="40" SASFieldName="ELEMENT">
        <Description>
          <TranslatedText xml:lang="en">Description of Element</TranslatedText>
        </Description>
        <def:Origin Type="Protocol"/>
      </ItemDef>
      <ItemDef OID="IT.SE.ETCD" Name="ETCD" DataType="text" Length="7" SASFieldName="ETCD">
        <Description>
          <TranslatedText xml:lang="en">Element Code</TranslatedText>
        </Description>
        <def:Origin Type="Assigned"/>
      </ItemDef>
      <ItemDef OID="IT.SE.SEENDTC" Name="SEENDTC" DataType="date" SASFieldName="SEENDTC">
        <Description>
          <TranslatedText xml:lang="en">End Date/Time of Element</TranslatedText>
        </Description>
        <def:Origin Type="Derived"/>
      </ItemDef>
      <ItemDef OID="IT.SE.SESEQ" Name="SESEQ" DataType="integer" Length="1" SASFieldName="SESEQ">
        <Description>
          <TranslatedText xml:lang="en">Sequence Number</TranslatedText>
        </Description>
        <def:Origin Type="Derived"/>
      </ItemDef>
      <ItemDef OID="IT.SE.SESTDTC" Name="SESTDTC" DataType="date" SASFieldName="SESTDTC">
        <Description>
          <TranslatedText xml:lang="en">Start Date/Time of Element</TranslatedText>
        </Description>
        <def:Origin Type="Derived"/>
      </ItemDef>
      <ItemDef OID="IT.SE.STUDYID" Name="STUDYID" DataType="text" Length="7" SASFieldName="STUDYID">
        <Description>
          <TranslatedText xml:lang="en">Study Identifier</TranslatedText>
        </Description>
        <def:Origin Type="Protocol"/>
      </ItemDef>
      <ItemDef OID="IT.SE.TAETORD" Name="TAETORD" DataType="integer" Length="1" SASFieldName="TAETORD">
        <Description>
          <TranslatedText xml:lang="en">Planned Order of Elements within Arm</TranslatedText>
        </Description>
        <def:Origin Type="Protocol"/>
      </ItemDef>
      <ItemDef OID="IT.SE.USUBJID" Name="USUBJID" DataType="text" Length="14" SASFieldName="USUBJID">
        <Description>
          <TranslatedText xml:lang="en">Unique Subject Identifier</TranslatedText>
        </Description>
        <def:Origin Type="Derived"/>
      </ItemDef>
