<?xml version="1.0" encoding="UTF-8"?>
<?xml-stylesheet type="text/xsl" href="define2-1.xsl"?>
<!-- Produced with SAS 9.4 -->
<ODM xmlns:xlink="http://www.w3.org/1999/xlink" xmlns:def="http://www.cdisc.org/ns/def/v2.1" xmlns="http://www.cdisc.org/ns/odm/v1.3" FileOID="/ExampleJUV ID/Define-XML_2.0.0/1" CreationDateTime="2023-03-18T17:49:09-04:00" FileType="Snapshot" ODMVersion="1.3.2" Originator="ExampleJUV Sponsor" SourceSystem="SAS Clinical Standards Toolkit (openCST)" SourceSystemVersion="1.7" def:Context="Submission">
  <Study OID="ExampleJUV ID">
    <GlobalVariables>
      <StudyName>ExampleJUV ID</StudyName>
      <StudyDescription>An Oral (Gavage) 6-Week Study of Juvenile Rat Toxicity with a 4-week Recovery
        Period</StudyDescription>
      <ProtocolName>ExampleJUV</ProtocolName>
    </GlobalVariables>
    <MetaDataVersion OID="MDV.ExampleJUV ID.SENDIG-DART.1.1.SDTM.1.6" Name="Study ExampleJUV ID, Data Definitions" Description="Study ExampleJUV ID, Data Definitions" def:DefineVersion="2.1.0">
      <def:Standards>
        <def:Standard OID="STD.1" Name="SENDIG-DART" Type="IG" Version="1.2" Status="Final"/>
        <def:Standard OID="STD.2" Name="CDISC/NCI" Type="CT" PublishingSet="SEND" Version="2021-12-17" Status="Final"/>
        <def:Standard OID="STD.3" Name="CDISC/NCI" Type="CT" PublishingSet="DEFINE-XML" Version="2020-12-18" Status="Final"/>
      </def:Standards>
      <def:ValueListDef OID="VL.BW.BWORRES">
        <ItemRef ItemOID="IT.BW.BWORRES.WC.BW.BWORRES.00001" OrderNumber="1" Mandatory="No">
          <def:WhereClauseRef WhereClauseOID="WC.BW.BWORRES.00001"/>
        </ItemRef>
        <ItemRef ItemOID="IT.BW.BWORRES.WC.BW.BWORRES.00002" OrderNumber="2" Mandatory="No">
          <def:WhereClauseRef WhereClauseOID="WC.BW.BWORRES.00002"/>
        </ItemRef>
        <ItemRef ItemOID="IT.BW.BWORRES.WC.BW.BWORRES.00003" OrderNumber="3" Mandatory="No">
          <def:WhereClauseRef WhereClauseOID="WC.BW.BWORRES.00003"/>
        </ItemRef>
      </def:ValueListDef>
      <def:ValueListDef OID="VL.DP.DPORRES">
        <ItemRef ItemOID="IT.DP.DPORRES.WC.DP.DPORRES.00004" OrderNumber="1" Mandatory="No">
          <def:WhereClauseRef WhereClauseOID="WC.DP.DPORRES.00004"/>
        </ItemRef>
        <ItemRef ItemOID="IT.DP.DPORRES.WC.DP.DPORRES.00005" OrderNumber="2" Mandatory="No">
          <def:WhereClauseRef WhereClauseOID="WC.DP.DPORRES.00005"/>
        </ItemRef>
      </def:ValueListDef>
      <def:ValueListDef OID="VL.DP.DPSTRESC">
        <ItemRef ItemOID="IT.DP.DPSTRESC.WC.DP.DPSTRESC.00006" OrderNumber="1" Mandatory="No">
          <def:WhereClauseRef WhereClauseOID="WC.DP.DPSTRESC.00006"/>
        </ItemRef>
        <ItemRef ItemOID="IT.DP.DPSTRESC.WC.DP.DPSTRESC.00007" OrderNumber="2" Mandatory="No">
          <def:WhereClauseRef WhereClauseOID="WC.DP.DPSTRESC.00007"/>
        </ItemRef>
      </def:ValueListDef>
      <def:ValueListDef OID="VL.FW.FWORRES">
        <ItemRef ItemOID="IT.FW.FWORRES.WC.FW.FWORRES.00008" OrderNumber="1" Mandatory="No">
          <def:WhereClauseRef WhereClauseOID="WC.FW.FWORRES.00008"/>
        </ItemRef>
      </def:ValueListDef>
      <def:ValueListDef OID="VL.FW.FWSTRESC">
        <ItemRef ItemOID="IT.FW.FWSTRESC.WC.FW.FWSTRESC.00009" OrderNumber="1" Mandatory="No" MethodOID="MT.FW.FWSTRESC.WC.FW.FWSTRESC.00009">
          <def:WhereClauseRef WhereClauseOID="WC.FW.FWSTRESC.00009"/>
        </ItemRef>
      </def:ValueListDef>
      <def:ValueListDef OID="VL.LB.LBORRES">
        <ItemRef ItemOID="IT.LB.LBORRES.WC.LB.LBORRES.00010" OrderNumber="1" Mandatory="No">
          <def:WhereClauseRef WhereClauseOID="WC.LB.LBORRES.00010"/>
        </ItemRef>
        <ItemRef ItemOID="IT.LB.LBORRES.WC.LB.LBORRES.00011" OrderNumber="2" Mandatory="No">
          <def:WhereClauseRef WhereClauseOID="WC.LB.LBORRES.00011"/>
        </ItemRef>
        <ItemRef ItemOID="IT.LB.LBORRES.WC.LB.LBORRES.00012" OrderNumber="3" Mandatory="No">
          <def:WhereClauseRef WhereClauseOID="WC.LB.LBORRES.00012"/>
        </ItemRef>
        <ItemRef ItemOID="IT.LB.LBORRES.WC.LB.LBORRES.00013" OrderNumber="4" Mandatory="No">
          <def:WhereClauseRef WhereClauseOID="WC.LB.LBORRES.00013"/>
        </ItemRef>
        <ItemRef ItemOID="IT.LB.LBORRES.WC.LB.LBORRES.00014" OrderNumber="5" Mandatory="No">
          <def:WhereClauseRef WhereClauseOID="WC.LB.LBORRES.00014"/>
        </ItemRef>
        <ItemRef ItemOID="IT.LB.LBORRES.WC.LB.LBORRES.00015" OrderNumber="6" Mandatory="No">
          <def:WhereClauseRef WhereClauseOID="WC.LB.LBORRES.00015"/>
        </ItemRef>
        <ItemRef ItemOID="IT.LB.LBORRES.WC.LB.LBORRES.00016" OrderNumber="7" Mandatory="No">
          <def:WhereClauseRef WhereClauseOID="WC.LB.LBORRES.00016"/>
        </ItemRef>
        <ItemRef ItemOID="IT.LB.LBORRES.WC.LB.LBORRES.00017" OrderNumber="8" Mandatory="No">
          <def:WhereClauseRef WhereClauseOID="WC.LB.LBORRES.00017"/>
        </ItemRef>
        <ItemRef ItemOID="IT.LB.LBORRES.WC.LB.LBORRES.00018" OrderNumber="9" Mandatory="No">
          <def:WhereClauseRef WhereClauseOID="WC.LB.LBORRES.00018"/>
        </ItemRef>
        <ItemRef ItemOID="IT.LB.LBORRES.WC.LB.LBORRES.00019" OrderNumber="10" Mandatory="No">
          <def:WhereClauseRef WhereClauseOID="WC.LB.LBORRES.00019"/>
        </ItemRef>
        <ItemRef ItemOID="IT.LB.LBORRES.WC.LB.LBORRES.00020" OrderNumber="11" Mandatory="No">
          <def:WhereClauseRef WhereClauseOID="WC.LB.LBORRES.00020"/>
        </ItemRef>
        <ItemRef ItemOID="IT.LB.LBORRES.WC.LB.LBORRES.00021" OrderNumber="12" Mandatory="No">
          <def:WhereClauseRef WhereClauseOID="WC.LB.LBORRES.00021"/>
        </ItemRef>
        <ItemRef ItemOID="IT.LB.LBORRES.WC.LB.LBORRES.00022" OrderNumber="13" Mandatory="No">
          <def:WhereClauseRef WhereClauseOID="WC.LB.LBORRES.00022"/>
        </ItemRef>
        <ItemRef ItemOID="IT.LB.LBORRES.WC.LB.LBORRES.00023" OrderNumber="14" Mandatory="No">
          <def:WhereClauseRef WhereClauseOID="WC.LB.LBORRES.00023"/>
        </ItemRef>
        <ItemRef ItemOID="IT.LB.LBORRES.WC.LB.LBORRES.00024" OrderNumber="15" Mandatory="No">
          <def:WhereClauseRef WhereClauseOID="WC.LB.LBORRES.00024"/>
        </ItemRef>
        <ItemRef ItemOID="IT.LB.LBORRES.WC.LB.LBORRES.00025" OrderNumber="16" Mandatory="No">
          <def:WhereClauseRef WhereClauseOID="WC.LB.LBORRES.00025"/>
        </ItemRef>
        <ItemRef ItemOID="IT.LB.LBORRES.WC.LB.LBORRES.00026" OrderNumber="17" Mandatory="No">
          <def:WhereClauseRef WhereClauseOID="WC.LB.LBORRES.00026"/>
        </ItemRef>
        <ItemRef ItemOID="IT.LB.LBORRES.WC.LB.LBORRES.00027" OrderNumber="18" Mandatory="No">
          <def:WhereClauseRef WhereClauseOID="WC.LB.LBORRES.00027"/>
        </ItemRef>
        <ItemRef ItemOID="IT.LB.LBORRES.WC.LB.LBORRES.00028" OrderNumber="19" Mandatory="No">
          <def:WhereClauseRef WhereClauseOID="WC.LB.LBORRES.00028"/>
        </ItemRef>
        <ItemRef ItemOID="IT.LB.LBORRES.WC.LB.LBORRES.00029" OrderNumber="20" Mandatory="No">
          <def:WhereClauseRef WhereClauseOID="WC.LB.LBORRES.00029"/>
        </ItemRef>
        <ItemRef ItemOID="IT.LB.LBORRES.WC.LB.LBORRES.00030" OrderNumber="21" Mandatory="No">
          <def:WhereClauseRef WhereClauseOID="WC.LB.LBORRES.00030"/>
        </ItemRef>
        <ItemRef ItemOID="IT.LB.LBORRES.WC.LB.LBORRES.00031" OrderNumber="22" Mandatory="No">
          <def:WhereClauseRef WhereClauseOID="WC.LB.LBORRES.00031"/>
        </ItemRef>
        <ItemRef ItemOID="IT.LB.LBORRES.WC.LB.LBORRES.00032" OrderNumber="23" Mandatory="No">
          <def:WhereClauseRef WhereClauseOID="WC.LB.LBORRES.00032"/>
        </ItemRef>
        <ItemRef ItemOID="IT.LB.LBORRES.WC.LB.LBORRES.00033" OrderNumber="24" Mandatory="No">
          <def:WhereClauseRef WhereClauseOID="WC.LB.LBORRES.00033"/>
        </ItemRef>
        <ItemRef ItemOID="IT.LB.LBORRES.WC.LB.LBORRES.00034" OrderNumber="25" Mandatory="No">
          <def:WhereClauseRef WhereClauseOID="WC.LB.LBORRES.00034"/>
        </ItemRef>
        <ItemRef ItemOID="IT.LB.LBORRES.WC.LB.LBORRES.00035" OrderNumber="26" Mandatory="No">
          <def:WhereClauseRef WhereClauseOID="WC.LB.LBORRES.00035"/>
        </ItemRef>
        <ItemRef ItemOID="IT.LB.LBORRES.WC.LB.LBORRES.00036" OrderNumber="27" Mandatory="No">
          <def:WhereClauseRef WhereClauseOID="WC.LB.LBORRES.00036"/>
        </ItemRef>
        <ItemRef ItemOID="IT.LB.LBORRES.WC.LB.LBORRES.00037" OrderNumber="28" Mandatory="No">
          <def:WhereClauseRef WhereClauseOID="WC.LB.LBORRES.00037"/>
        </ItemRef>
        <ItemRef ItemOID="IT.LB.LBORRES.WC.LB.LBORRES.00038" OrderNumber="29" Mandatory="No">
          <def:WhereClauseRef WhereClauseOID="WC.LB.LBORRES.00038"/>
        </ItemRef>
        <ItemRef ItemOID="IT.LB.LBORRES.WC.LB.LBORRES.00039" OrderNumber="30" Mandatory="No">
          <def:WhereClauseRef WhereClauseOID="WC.LB.LBORRES.00039"/>
        </ItemRef>
        <ItemRef ItemOID="IT.LB.LBORRES.WC.LB.LBORRES.00040" OrderNumber="31" Mandatory="No">
          <def:WhereClauseRef WhereClauseOID="WC.LB.LBORRES.00040"/>
        </ItemRef>
        <ItemRef ItemOID="IT.LB.LBORRES.WC.LB.LBORRES.00041" OrderNumber="32" Mandatory="No">
          <def:WhereClauseRef WhereClauseOID="WC.LB.LBORRES.00041"/>
        </ItemRef>
        <ItemRef ItemOID="IT.LB.LBORRES.WC.LB.LBORRES.00042" OrderNumber="33" Mandatory="No">
          <def:WhereClauseRef WhereClauseOID="WC.LB.LBORRES.00042"/>
        </ItemRef>
        <ItemRef ItemOID="IT.LB.LBORRES.WC.LB.LBORRES.00043" OrderNumber="34" Mandatory="No">
          <def:WhereClauseRef WhereClauseOID="WC.LB.LBORRES.00043"/>
        </ItemRef>
        <ItemRef ItemOID="IT.LB.LBORRES.WC.LB.LBORRES.00044" OrderNumber="35" Mandatory="No">
          <def:WhereClauseRef WhereClauseOID="WC.LB.LBORRES.00044"/>
        </ItemRef>
        <ItemRef ItemOID="IT.LB.LBORRES.WC.LB.LBORRES.00045" OrderNumber="36" Mandatory="No">
          <def:WhereClauseRef WhereClauseOID="WC.LB.LBORRES.00045"/>
        </ItemRef>
        <ItemRef ItemOID="IT.LB.LBORRES.WC.LB.LBORRES.00046" OrderNumber="37" Mandatory="No">
          <def:WhereClauseRef WhereClauseOID="WC.LB.LBORRES.00046"/>
        </ItemRef>
        <ItemRef ItemOID="IT.LB.LBORRES.WC.LB.LBORRES.00047" OrderNumber="38" Mandatory="No">
          <def:WhereClauseRef WhereClauseOID="WC.LB.LBORRES.00047"/>
        </ItemRef>
        <ItemRef ItemOID="IT.LB.LBORRES.WC.LB.LBORRES.00048" OrderNumber="39" Mandatory="No">
          <def:WhereClauseRef WhereClauseOID="WC.LB.LBORRES.00048"/>
        </ItemRef>
        <ItemRef ItemOID="IT.LB.LBORRES.WC.LB.LBORRES.00049" OrderNumber="40" Mandatory="No">
          <def:WhereClauseRef WhereClauseOID="WC.LB.LBORRES.00049"/>
        </ItemRef>
        <ItemRef ItemOID="IT.LB.LBORRES.WC.LB.LBORRES.00050" OrderNumber="41" Mandatory="No">
          <def:WhereClauseRef WhereClauseOID="WC.LB.LBORRES.00050"/>
        </ItemRef>
        <ItemRef ItemOID="IT.LB.LBORRES.WC.LB.LBORRES.00051" OrderNumber="42" Mandatory="No">
          <def:WhereClauseRef WhereClauseOID="WC.LB.LBORRES.00051"/>
        </ItemRef>
        <ItemRef ItemOID="IT.LB.LBORRES.WC.LB.LBORRES.00052" OrderNumber="43" Mandatory="No">
          <def:WhereClauseRef WhereClauseOID="WC.LB.LBORRES.00052"/>
        </ItemRef>
        <ItemRef ItemOID="IT.LB.LBORRES.WC.LB.LBORRES.00053" OrderNumber="44" Mandatory="No">
          <def:WhereClauseRef WhereClauseOID="WC.LB.LBORRES.00053"/>
        </ItemRef>
        <ItemRef ItemOID="IT.LB.LBORRES.WC.LB.LBORRES.00054" OrderNumber="45" Mandatory="No">
          <def:WhereClauseRef WhereClauseOID="WC.LB.LBORRES.00054"/>
        </ItemRef>
        <ItemRef ItemOID="IT.LB.LBORRES.WC.LB.LBORRES.00055" OrderNumber="46" Mandatory="No">
          <def:WhereClauseRef WhereClauseOID="WC.LB.LBORRES.00055"/>
        </ItemRef>
        <ItemRef ItemOID="IT.LB.LBORRES.WC.LB.LBORRES.00056" OrderNumber="47" Mandatory="No">
          <def:WhereClauseRef WhereClauseOID="WC.LB.LBORRES.00056"/>
        </ItemRef>
        <ItemRef ItemOID="IT.LB.LBORRES.WC.LB.LBORRES.00057" OrderNumber="48" Mandatory="No">
          <def:WhereClauseRef WhereClauseOID="WC.LB.LBORRES.00057"/>
        </ItemRef>
        <ItemRef ItemOID="IT.LB.LBORRES.WC.LB.LBORRES.00058" OrderNumber="49" Mandatory="No">
          <def:WhereClauseRef WhereClauseOID="WC.LB.LBORRES.00058"/>
        </ItemRef>
        <ItemRef ItemOID="IT.LB.LBORRES.WC.LB.LBORRES.00059" OrderNumber="50" Mandatory="No">
          <def:WhereClauseRef WhereClauseOID="WC.LB.LBORRES.00059"/>
        </ItemRef>
        <ItemRef ItemOID="IT.LB.LBORRES.WC.LB.LBORRES.00060" OrderNumber="51" Mandatory="No">
          <def:WhereClauseRef WhereClauseOID="WC.LB.LBORRES.00060"/>
        </ItemRef>
        <ItemRef ItemOID="IT.LB.LBORRES.WC.LB.LBORRES.00061" OrderNumber="52" Mandatory="No">
          <def:WhereClauseRef WhereClauseOID="WC.LB.LBORRES.00061"/>
        </ItemRef>
        <ItemRef ItemOID="IT.LB.LBORRES.WC.LB.LBORRES.00062" OrderNumber="53" Mandatory="No">
          <def:WhereClauseRef WhereClauseOID="WC.LB.LBORRES.00062"/>
        </ItemRef>
        <ItemRef ItemOID="IT.LB.LBORRES.WC.LB.LBORRES.00063" OrderNumber="54" Mandatory="No">
          <def:WhereClauseRef WhereClauseOID="WC.LB.LBORRES.00063"/>
        </ItemRef>
        <ItemRef ItemOID="IT.LB.LBORRES.WC.LB.LBORRES.00064" OrderNumber="55" Mandatory="No">
          <def:WhereClauseRef WhereClauseOID="WC.LB.LBORRES.00064"/>
        </ItemRef>
        <ItemRef ItemOID="IT.LB.LBORRES.WC.LB.LBORRES.00065" OrderNumber="56" Mandatory="No">
          <def:WhereClauseRef WhereClauseOID="WC.LB.LBORRES.00065"/>
        </ItemRef>
        <ItemRef ItemOID="IT.LB.LBORRES.WC.LB.LBORRES.00066" OrderNumber="57" Mandatory="No">
          <def:WhereClauseRef WhereClauseOID="WC.LB.LBORRES.00066"/>
        </ItemRef>
        <ItemRef ItemOID="IT.LB.LBORRES.WC.LB.LBORRES.00067" OrderNumber="58" Mandatory="No">
          <def:WhereClauseRef WhereClauseOID="WC.LB.LBORRES.00067"/>
        </ItemRef>
        <ItemRef ItemOID="IT.LB.LBORRES.WC.LB.LBORRES.00068" OrderNumber="59" Mandatory="No">
          <def:WhereClauseRef WhereClauseOID="WC.LB.LBORRES.00068"/>
        </ItemRef>
        <ItemRef ItemOID="IT.LB.LBORRES.WC.LB.LBORRES.00069" OrderNumber="60" Mandatory="No">
          <def:WhereClauseRef WhereClauseOID="WC.LB.LBORRES.00069"/>
        </ItemRef>
        <ItemRef ItemOID="IT.LB.LBORRES.WC.LB.LBORRES.00070" OrderNumber="61" Mandatory="No">
          <def:WhereClauseRef WhereClauseOID="WC.LB.LBORRES.00070"/>
        </ItemRef>
      </def:ValueListDef>
      <def:ValueListDef OID="VL.OM.OMORRES">
        <ItemRef ItemOID="IT.OM.OMORRES.WC.OM.OMORRES.00071" OrderNumber="1" Mandatory="No">
          <def:WhereClauseRef WhereClauseOID="WC.OM.OMORRES.00071"/>
        </ItemRef>
        <ItemRef ItemOID="IT.OM.OMORRES.WC.OM.OMORRES.00072" OrderNumber="2" Mandatory="No" MethodOID="MT.OM.OMORRES.WC.OM.OMORRES.00072">
          <def:WhereClauseRef WhereClauseOID="WC.OM.OMORRES.00072"/>
        </ItemRef>
        <ItemRef ItemOID="IT.OM.OMORRES.WC.OM.OMORRES.00073" OrderNumber="3" Mandatory="No">
          <def:WhereClauseRef WhereClauseOID="WC.OM.OMORRES.00073"/>
        </ItemRef>
      </def:ValueListDef>
      <def:ValueListDef OID="VL.SUPPCL.QVAL">
        <ItemRef ItemOID="IT.SUPPCL.QVAL.WC.SUPPCL.QVAL.00074" OrderNumber="1" Mandatory="No">
          <def:WhereClauseRef WhereClauseOID="WC.SUPPCL.QVAL.00074"/>
        </ItemRef>
      </def:ValueListDef>
      <def:ValueListDef OID="VL.TS.TSVAL">
        <ItemRef ItemOID="IT.TS.TSVAL.WC.TS.TSVAL.00075" OrderNumber="1" Mandatory="No">
          <def:WhereClauseRef WhereClauseOID="WC.TS.TSVAL.00075"/>
        </ItemRef>
        <ItemRef ItemOID="IT.TS.TSVAL.WC.TS.TSVAL.00076" OrderNumber="2" Mandatory="No">
          <def:WhereClauseRef WhereClauseOID="WC.TS.TSVAL.00076"/>
        </ItemRef>
        <ItemRef ItemOID="IT.TS.TSVAL.WC.TS.TSVAL.00077" OrderNumber="3" Mandatory="No">
          <def:WhereClauseRef WhereClauseOID="WC.TS.TSVAL.00077"/>
        </ItemRef>
        <ItemRef ItemOID="IT.TS.TSVAL.WC.TS.TSVAL.00078" OrderNumber="4" Mandatory="No">
          <def:WhereClauseRef WhereClauseOID="WC.TS.TSVAL.00078"/>
        </ItemRef>
        <ItemRef ItemOID="IT.TS.TSVAL.WC.TS.TSVAL.00079" OrderNumber="5" Mandatory="No">
          <def:WhereClauseRef WhereClauseOID="WC.TS.TSVAL.00079"/>
        </ItemRef>
        <ItemRef ItemOID="IT.TS.TSVAL.WC.TS.TSVAL.00080" OrderNumber="6" Mandatory="No">
          <def:WhereClauseRef WhereClauseOID="WC.TS.TSVAL.00080"/>
        </ItemRef>
        <ItemRef ItemOID="IT.TS.TSVAL.WC.TS.TSVAL.00081" OrderNumber="7" Mandatory="No">
          <def:WhereClauseRef WhereClauseOID="WC.TS.TSVAL.00081"/>
        </ItemRef>
        <ItemRef ItemOID="IT.TS.TSVAL.WC.TS.TSVAL.00082" OrderNumber="8" Mandatory="No">
          <def:WhereClauseRef WhereClauseOID="WC.TS.TSVAL.00082"/>
        </ItemRef>
        <ItemRef ItemOID="IT.TS.TSVAL.WC.TS.TSVAL.00083" OrderNumber="9" Mandatory="No">
          <def:WhereClauseRef WhereClauseOID="WC.TS.TSVAL.00083"/>
        </ItemRef>
        <ItemRef ItemOID="IT.TS.TSVAL.WC.TS.TSVAL.00084" OrderNumber="10" Mandatory="No">
          <def:WhereClauseRef WhereClauseOID="WC.TS.TSVAL.00084"/>
        </ItemRef>
        <ItemRef ItemOID="IT.TS.TSVAL.WC.TS.TSVAL.00085" OrderNumber="11" Mandatory="No">
          <def:WhereClauseRef WhereClauseOID="WC.TS.TSVAL.00085"/>
        </ItemRef>
        <ItemRef ItemOID="IT.TS.TSVAL.WC.TS.TSVAL.00086" OrderNumber="12" Mandatory="No">
          <def:WhereClauseRef WhereClauseOID="WC.TS.TSVAL.00086"/>
        </ItemRef>
        <ItemRef ItemOID="IT.TS.TSVAL.WC.TS.TSVAL.00087" OrderNumber="13" Mandatory="No">
          <def:WhereClauseRef WhereClauseOID="WC.TS.TSVAL.00087"/>
        </ItemRef>
        <ItemRef ItemOID="IT.TS.TSVAL.WC.TS.TSVAL.00088" OrderNumber="14" Mandatory="No">
          <def:WhereClauseRef WhereClauseOID="WC.TS.TSVAL.00088"/>
        </ItemRef>
        <ItemRef ItemOID="IT.TS.TSVAL.WC.TS.TSVAL.00089" OrderNumber="15" Mandatory="No">
          <def:WhereClauseRef WhereClauseOID="WC.TS.TSVAL.00089"/>
        </ItemRef>
        <ItemRef ItemOID="IT.TS.TSVAL.WC.TS.TSVAL.00090" OrderNumber="16" Mandatory="No">
          <def:WhereClauseRef WhereClauseOID="WC.TS.TSVAL.00090"/>
        </ItemRef>
        <ItemRef ItemOID="IT.TS.TSVAL.WC.TS.TSVAL.00091" OrderNumber="17" Mandatory="No">
          <def:WhereClauseRef WhereClauseOID="WC.TS.TSVAL.00091"/>
        </ItemRef>
        <ItemRef ItemOID="IT.TS.TSVAL.WC.TS.TSVAL.00092" OrderNumber="18" Mandatory="No">
          <def:WhereClauseRef WhereClauseOID="WC.TS.TSVAL.00092"/>
        </ItemRef>
        <ItemRef ItemOID="IT.TS.TSVAL.WC.TS.TSVAL.00093" OrderNumber="19" Mandatory="No">
          <def:WhereClauseRef WhereClauseOID="WC.TS.TSVAL.00093"/>
        </ItemRef>
        <ItemRef ItemOID="IT.TS.TSVAL.WC.TS.TSVAL.00094" OrderNumber="20" Mandatory="No">
          <def:WhereClauseRef WhereClauseOID="WC.TS.TSVAL.00094"/>
        </ItemRef>
        <ItemRef ItemOID="IT.TS.TSVAL.WC.TS.TSVAL.00095" OrderNumber="21" Mandatory="No">
          <def:WhereClauseRef WhereClauseOID="WC.TS.TSVAL.00095"/>
        </ItemRef>
        <ItemRef ItemOID="IT.TS.TSVAL.WC.TS.TSVAL.00096" OrderNumber="22" Mandatory="No">
          <def:WhereClauseRef WhereClauseOID="WC.TS.TSVAL.00096"/>
        </ItemRef>
        <ItemRef ItemOID="IT.TS.TSVAL.WC.TS.TSVAL.00097" OrderNumber="23" Mandatory="No">
          <def:WhereClauseRef WhereClauseOID="WC.TS.TSVAL.00097"/>
        </ItemRef>
        <ItemRef ItemOID="IT.TS.TSVAL.WC.TS.TSVAL.00098" OrderNumber="24" Mandatory="No">
          <def:WhereClauseRef WhereClauseOID="WC.TS.TSVAL.00098"/>
        </ItemRef>
        <ItemRef ItemOID="IT.TS.TSVAL.WC.TS.TSVAL.00099" OrderNumber="25" Mandatory="No">
          <def:WhereClauseRef WhereClauseOID="WC.TS.TSVAL.00099"/>
        </ItemRef>
        <ItemRef ItemOID="IT.TS.TSVAL.WC.TS.TSVAL.00100" OrderNumber="26" Mandatory="No">
          <def:WhereClauseRef WhereClauseOID="WC.TS.TSVAL.00100"/>
        </ItemRef>
        <ItemRef ItemOID="IT.TS.TSVAL.WC.TS.TSVAL.00101" OrderNumber="27" Mandatory="No">
          <def:WhereClauseRef WhereClauseOID="WC.TS.TSVAL.00101"/>
        </ItemRef>
        <ItemRef ItemOID="IT.TS.TSVAL.WC.TS.TSVAL.00102" OrderNumber="28" Mandatory="No">
          <def:WhereClauseRef WhereClauseOID="WC.TS.TSVAL.00102"/>
        </ItemRef>
        <ItemRef ItemOID="IT.TS.TSVAL.WC.TS.TSVAL.00103" OrderNumber="29" Mandatory="No">
          <def:WhereClauseRef WhereClauseOID="WC.TS.TSVAL.00103"/>
        </ItemRef>
        <ItemRef ItemOID="IT.TS.TSVAL.WC.TS.TSVAL.00104" OrderNumber="30" Mandatory="No">
          <def:WhereClauseRef WhereClauseOID="WC.TS.TSVAL.00104"/>
        </ItemRef>
        <ItemRef ItemOID="IT.TS.TSVAL.WC.TS.TSVAL.00105" OrderNumber="31" Mandatory="No">
          <def:WhereClauseRef WhereClauseOID="WC.TS.TSVAL.00105"/>
        </ItemRef>
        <ItemRef ItemOID="IT.TS.TSVAL.WC.TS.TSVAL.00106" OrderNumber="32" Mandatory="No">
          <def:WhereClauseRef WhereClauseOID="WC.TS.TSVAL.00106"/>
        </ItemRef>
        <ItemRef ItemOID="IT.TS.TSVAL.WC.TS.TSVAL.00107" OrderNumber="33" Mandatory="No">
          <def:WhereClauseRef WhereClauseOID="WC.TS.TSVAL.00107"/>
        </ItemRef>
        <ItemRef ItemOID="IT.TS.TSVAL.WC.TS.TSVAL.00108" OrderNumber="34" Mandatory="No">
          <def:WhereClauseRef WhereClauseOID="WC.TS.TSVAL.00108"/>
        </ItemRef>
        <ItemRef ItemOID="IT.TS.TSVAL.WC.TS.TSVAL.00109" OrderNumber="35" Mandatory="No">
          <def:WhereClauseRef WhereClauseOID="WC.TS.TSVAL.00109"/>
        </ItemRef>
        <ItemRef ItemOID="IT.TS.TSVAL.WC.TS.TSVAL.00110" OrderNumber="36" Mandatory="No">
          <def:WhereClauseRef WhereClauseOID="WC.TS.TSVAL.00110"/>
        </ItemRef>
        <ItemRef ItemOID="IT.TS.TSVAL.WC.TS.TSVAL.00111" OrderNumber="37" Mandatory="No">
          <def:WhereClauseRef WhereClauseOID="WC.TS.TSVAL.00111"/>
        </ItemRef>
        <ItemRef ItemOID="IT.TS.TSVAL.WC.TS.TSVAL.00112" OrderNumber="38" Mandatory="No">
          <def:WhereClauseRef WhereClauseOID="WC.TS.TSVAL.00112"/>
        </ItemRef>
        <ItemRef ItemOID="IT.TS.TSVAL.WC.TS.TSVAL.00113" OrderNumber="39" Mandatory="No">
          <def:WhereClauseRef WhereClauseOID="WC.TS.TSVAL.00113"/>
        </ItemRef>
        <ItemRef ItemOID="IT.TS.TSVAL.WC.TS.TSVAL.00114" OrderNumber="40" Mandatory="No">
          <def:WhereClauseRef WhereClauseOID="WC.TS.TSVAL.00114"/>
        </ItemRef>
        <ItemRef ItemOID="IT.TS.TSVAL.WC.TS.TSVAL.00115" OrderNumber="41" Mandatory="No">
          <def:WhereClauseRef WhereClauseOID="WC.TS.TSVAL.00115"/>
        </ItemRef>
        <ItemRef ItemOID="IT.TS.TSVAL.WC.TS.TSVAL.00116" OrderNumber="42" Mandatory="No">
          <def:WhereClauseRef WhereClauseOID="WC.TS.TSVAL.00116"/>
        </ItemRef>
        <ItemRef ItemOID="IT.TS.TSVAL.WC.TS.TSVAL.00117" OrderNumber="43" Mandatory="No">
          <def:WhereClauseRef WhereClauseOID="WC.TS.TSVAL.00117"/>
        </ItemRef>
        <ItemRef ItemOID="IT.TS.TSVAL.WC.TS.TSVAL.00118" OrderNumber="44" Mandatory="No">
          <def:WhereClauseRef WhereClauseOID="WC.TS.TSVAL.00118"/>
        </ItemRef>
        <ItemRef ItemOID="IT.TS.TSVAL.WC.TS.TSVAL.00119" OrderNumber="45" Mandatory="No">
          <def:WhereClauseRef WhereClauseOID="WC.TS.TSVAL.00119"/>
        </ItemRef>
        <ItemRef ItemOID="IT.TS.TSVAL.WC.TS.TSVAL.00120" OrderNumber="46" Mandatory="No">
          <def:WhereClauseRef WhereClauseOID="WC.TS.TSVAL.00120"/>
        </ItemRef>
        <ItemRef ItemOID="IT.TS.TSVAL.WC.TS.TSVAL.00121" OrderNumber="47" Mandatory="No">
          <def:WhereClauseRef WhereClauseOID="WC.TS.TSVAL.00121"/>
        </ItemRef>
        <ItemRef ItemOID="IT.TS.TSVAL.WC.TS.TSVAL.00122" OrderNumber="48" Mandatory="No">
          <def:WhereClauseRef WhereClauseOID="WC.TS.TSVAL.00122"/>
        </ItemRef>
        <ItemRef ItemOID="IT.TS.TSVAL.WC.TS.TSVAL.00123" OrderNumber="49" Mandatory="No">
          <def:WhereClauseRef WhereClauseOID="WC.TS.TSVAL.00123"/>
        </ItemRef>
        <ItemRef ItemOID="IT.TS.TSVAL.WC.TS.TSVAL.00124" OrderNumber="50" Mandatory="No">
          <def:WhereClauseRef WhereClauseOID="WC.TS.TSVAL.00124"/>
        </ItemRef>
        <ItemRef ItemOID="IT.TS.TSVAL.WC.TS.TSVAL.00125" OrderNumber="51" Mandatory="No">
          <def:WhereClauseRef WhereClauseOID="WC.TS.TSVAL.00125"/>
        </ItemRef>
        <ItemRef ItemOID="IT.TS.TSVAL.WC.TS.TSVAL.00126" OrderNumber="52" Mandatory="No">
          <def:WhereClauseRef WhereClauseOID="WC.TS.TSVAL.00126"/>
        </ItemRef>
        <ItemRef ItemOID="IT.TS.TSVAL.WC.TS.TSVAL.00127" OrderNumber="53" Mandatory="No">
          <def:WhereClauseRef WhereClauseOID="WC.TS.TSVAL.00127"/>
        </ItemRef>
        <ItemRef ItemOID="IT.TS.TSVAL.WC.TS.TSVAL.00128" OrderNumber="54" Mandatory="No">
          <def:WhereClauseRef WhereClauseOID="WC.TS.TSVAL.00128"/>
        </ItemRef>
      </def:ValueListDef>
      <def:ValueListDef OID="VL.TX.TXVAL">
        <ItemRef ItemOID="IT.TX.TXVAL.WC.TX.TXVAL.00129" OrderNumber="1" Mandatory="No">
          <def:WhereClauseRef WhereClauseOID="WC.TX.TXVAL.00129"/>
        </ItemRef>
        <ItemRef ItemOID="IT.TX.TXVAL.WC.TX.TXVAL.00130" OrderNumber="2" Mandatory="No">
          <def:WhereClauseRef WhereClauseOID="WC.TX.TXVAL.00130"/>
        </ItemRef>
        <ItemRef ItemOID="IT.TX.TXVAL.WC.TX.TXVAL.00131" OrderNumber="3" Mandatory="No">
          <def:WhereClauseRef WhereClauseOID="WC.TX.TXVAL.00131"/>
        </ItemRef>
        <ItemRef ItemOID="IT.TX.TXVAL.WC.TX.TXVAL.00132" OrderNumber="4" Mandatory="No">
          <def:WhereClauseRef WhereClauseOID="WC.TX.TXVAL.00132"/>
        </ItemRef>
        <ItemRef ItemOID="IT.TX.TXVAL.WC.TX.TXVAL.00133" OrderNumber="5" Mandatory="No">
          <def:WhereClauseRef WhereClauseOID="WC.TX.TXVAL.00133"/>
        </ItemRef>
        <ItemRef ItemOID="IT.TX.TXVAL.WC.TX.TXVAL.00134" OrderNumber="6" Mandatory="No">
          <def:WhereClauseRef WhereClauseOID="WC.TX.TXVAL.00134"/>
        </ItemRef>
        <ItemRef ItemOID="IT.TX.TXVAL.WC.TX.TXVAL.00135" OrderNumber="7" Mandatory="No">
          <def:WhereClauseRef WhereClauseOID="WC.TX.TXVAL.00135"/>
        </ItemRef>
        <ItemRef ItemOID="IT.TX.TXVAL.WC.TX.TXVAL.00136" OrderNumber="8" Mandatory="No">
          <def:WhereClauseRef WhereClauseOID="WC.TX.TXVAL.00136"/>
        </ItemRef>
        <ItemRef ItemOID="IT.TX.TXVAL.WC.TX.TXVAL.00137" OrderNumber="9" Mandatory="No">
          <def:WhereClauseRef WhereClauseOID="WC.TX.TXVAL.00137"/>
        </ItemRef>
        <ItemRef ItemOID="IT.TX.TXVAL.WC.TX.TXVAL.00138" OrderNumber="10" Mandatory="No">
          <def:WhereClauseRef WhereClauseOID="WC.TX.TXVAL.00138"/>
        </ItemRef>
        <ItemRef ItemOID="IT.TX.TXVAL.WC.TX.TXVAL.00139" OrderNumber="11" Mandatory="No">
          <def:WhereClauseRef WhereClauseOID="WC.TX.TXVAL.00139"/>
        </ItemRef>
        <ItemRef ItemOID="IT.TX.TXVAL.WC.TX.TXVAL.00140" OrderNumber="12" Mandatory="No">
          <def:WhereClauseRef WhereClauseOID="WC.TX.TXVAL.00140"/>
        </ItemRef>
      </def:ValueListDef>
      <def:WhereClauseDef OID="WC.BW.BWORRES.00001">
        <RangeCheck Comparator="EQ" SoftHard="Soft" def:ItemOID="IT.BW.BWTESTCD">
          <CheckValue>318</CheckValue>
        </RangeCheck>
      </def:WhereClauseDef>
      <def:WhereClauseDef OID="WC.BW.BWORRES.00002">
        <RangeCheck Comparator="EQ" SoftHard="Soft" def:ItemOID="IT.BW.BWTESTCD">
          <CheckValue>BW</CheckValue>
        </RangeCheck>
      </def:WhereClauseDef>
      <def:WhereClauseDef OID="WC.BW.BWORRES.00003">
        <RangeCheck Comparator="EQ" SoftHard="Soft" def:ItemOID="IT.BW.BWTESTCD">
          <CheckValue>TERMBW</CheckValue>
        </RangeCheck>
      </def:WhereClauseDef>
      <def:WhereClauseDef OID="WC.DP.DPORRES.00004">
        <RangeCheck Comparator="EQ" SoftHard="Soft" def:ItemOID="IT.DP.DPTESTCD">
          <CheckValue>PREPUTSEP</CheckValue>
        </RangeCheck>
      </def:WhereClauseDef>
      <def:WhereClauseDef OID="WC.DP.DPORRES.00005">
        <RangeCheck Comparator="EQ" SoftHard="Soft" def:ItemOID="IT.DP.DPTESTCD">
          <CheckValue>VAGOPEN</CheckValue>
        </RangeCheck>
      </def:WhereClauseDef>
      <def:WhereClauseDef OID="WC.DP.DPSTRESC.00006">
        <RangeCheck Comparator="EQ" SoftHard="Soft" def:ItemOID="IT.DP.DPTESTCD">
          <CheckValue>PREPUTSEP</CheckValue>
        </RangeCheck>
      </def:WhereClauseDef>
      <def:WhereClauseDef OID="WC.DP.DPSTRESC.00007">
        <RangeCheck Comparator="EQ" SoftHard="Soft" def:ItemOID="IT.DP.DPTESTCD">
          <CheckValue>VAGOPEN</CheckValue>
        </RangeCheck>
      </def:WhereClauseDef>
      <def:WhereClauseDef OID="WC.FW.FWORRES.00008">
        <RangeCheck Comparator="EQ" SoftHard="Soft" def:ItemOID="IT.FW.FWTESTCD">
          <CheckValue>FC</CheckValue>
        </RangeCheck>
      </def:WhereClauseDef>
      <def:WhereClauseDef OID="WC.FW.FWSTRESC.00009">
        <RangeCheck Comparator="EQ" SoftHard="Soft" def:ItemOID="IT.FW.FWTESTCD">
          <CheckValue>FC</CheckValue>
        </RangeCheck>
      </def:WhereClauseDef>
      <def:WhereClauseDef OID="WC.LB.LBORRES.00010">
        <RangeCheck Comparator="EQ" SoftHard="Soft" def:ItemOID="IT.LB.LBTESTCD">
          <CheckValue>ALB</CheckValue>
        </RangeCheck>
        <RangeCheck Comparator="EQ" SoftHard="Soft" def:ItemOID="IT.LB.LBSPEC">
          <CheckValue>SERUM</CheckValue>
        </RangeCheck>
        <RangeCheck Comparator="EQ" SoftHard="Soft" def:ItemOID="IT.LB.LBCAT">
          <CheckValue>CLINICAL CHEMISTRY</CheckValue>
        </RangeCheck>
        <RangeCheck Comparator="EQ" SoftHard="Soft" def:ItemOID="IT.LB.LBMETHOD">
          <CheckValue/>
        </RangeCheck>
      </def:WhereClauseDef>
      <def:WhereClauseDef OID="WC.LB.LBORRES.00011">
        <RangeCheck Comparator="EQ" SoftHard="Soft" def:ItemOID="IT.LB.LBTESTCD">
          <CheckValue>ALBGLOB</CheckValue>
        </RangeCheck>
        <RangeCheck Comparator="EQ" SoftHard="Soft" def:ItemOID="IT.LB.LBSPEC">
          <CheckValue>SERUM</CheckValue>
        </RangeCheck>
        <RangeCheck Comparator="EQ" SoftHard="Soft" def:ItemOID="IT.LB.LBCAT">
          <CheckValue>CLINICAL CHEMISTRY</CheckValue>
        </RangeCheck>
        <RangeCheck Comparator="EQ" SoftHard="Soft" def:ItemOID="IT.LB.LBMETHOD">
          <CheckValue/>
        </RangeCheck>
      </def:WhereClauseDef>
      <def:WhereClauseDef OID="WC.LB.LBORRES.00012">
        <RangeCheck Comparator="EQ" SoftHard="Soft" def:ItemOID="IT.LB.LBTESTCD">
          <CheckValue>ALP</CheckValue>
        </RangeCheck>
        <RangeCheck Comparator="EQ" SoftHard="Soft" def:ItemOID="IT.LB.LBSPEC">
          <CheckValue>SERUM</CheckValue>
        </RangeCheck>
        <RangeCheck Comparator="EQ" SoftHard="Soft" def:ItemOID="IT.LB.LBCAT">
          <CheckValue>CLINICAL CHEMISTRY</CheckValue>
        </RangeCheck>
        <RangeCheck Comparator="EQ" SoftHard="Soft" def:ItemOID="IT.LB.LBMETHOD">
          <CheckValue/>
        </RangeCheck>
      </def:WhereClauseDef>
      <def:WhereClauseDef OID="WC.LB.LBORRES.00013">
        <RangeCheck Comparator="EQ" SoftHard="Soft" def:ItemOID="IT.LB.LBTESTCD">
          <CheckValue>ALT</CheckValue>
        </RangeCheck>
        <RangeCheck Comparator="EQ" SoftHard="Soft" def:ItemOID="IT.LB.LBSPEC">
          <CheckValue>SERUM</CheckValue>
        </RangeCheck>
        <RangeCheck Comparator="EQ" SoftHard="Soft" def:ItemOID="IT.LB.LBCAT">
          <CheckValue>CLINICAL CHEMISTRY</CheckValue>
        </RangeCheck>
        <RangeCheck Comparator="EQ" SoftHard="Soft" def:ItemOID="IT.LB.LBMETHOD">
          <CheckValue/>
        </RangeCheck>
      </def:WhereClauseDef>
      <def:WhereClauseDef OID="WC.LB.LBORRES.00014">
        <RangeCheck Comparator="EQ" SoftHard="Soft" def:ItemOID="IT.LB.LBTESTCD">
          <CheckValue>ALTAST</CheckValue>
        </RangeCheck>
        <RangeCheck Comparator="EQ" SoftHard="Soft" def:ItemOID="IT.LB.LBSPEC">
          <CheckValue>SERUM</CheckValue>
        </RangeCheck>
        <RangeCheck Comparator="EQ" SoftHard="Soft" def:ItemOID="IT.LB.LBCAT">
          <CheckValue>CLINICAL CHEMISTRY</CheckValue>
        </RangeCheck>
        <RangeCheck Comparator="EQ" SoftHard="Soft" def:ItemOID="IT.LB.LBMETHOD">
          <CheckValue/>
        </RangeCheck>
      </def:WhereClauseDef>
      <def:WhereClauseDef OID="WC.LB.LBORRES.00015">
        <RangeCheck Comparator="EQ" SoftHard="Soft" def:ItemOID="IT.LB.LBTESTCD">
          <CheckValue>APTT</CheckValue>
        </RangeCheck>
        <RangeCheck Comparator="EQ" SoftHard="Soft" def:ItemOID="IT.LB.LBSPEC">
          <CheckValue>PLASMA</CheckValue>
        </RangeCheck>
        <RangeCheck Comparator="EQ" SoftHard="Soft" def:ItemOID="IT.LB.LBCAT">
          <CheckValue>COAGULATION</CheckValue>
        </RangeCheck>
        <RangeCheck Comparator="EQ" SoftHard="Soft" def:ItemOID="IT.LB.LBMETHOD">
          <CheckValue/>
        </RangeCheck>
      </def:WhereClauseDef>
      <def:WhereClauseDef OID="WC.LB.LBORRES.00016">
        <RangeCheck Comparator="EQ" SoftHard="Soft" def:ItemOID="IT.LB.LBTESTCD">
          <CheckValue>AST</CheckValue>
        </RangeCheck>
        <RangeCheck Comparator="EQ" SoftHard="Soft" def:ItemOID="IT.LB.LBSPEC">
          <CheckValue>SERUM</CheckValue>
        </RangeCheck>
        <RangeCheck Comparator="EQ" SoftHard="Soft" def:ItemOID="IT.LB.LBCAT">
          <CheckValue>CLINICAL CHEMISTRY</CheckValue>
        </RangeCheck>
        <RangeCheck Comparator="EQ" SoftHard="Soft" def:ItemOID="IT.LB.LBMETHOD">
          <CheckValue/>
        </RangeCheck>
      </def:WhereClauseDef>
      <def:WhereClauseDef OID="WC.LB.LBORRES.00017">
        <RangeCheck Comparator="EQ" SoftHard="Soft" def:ItemOID="IT.LB.LBTESTCD">
          <CheckValue>BASO</CheckValue>
        </RangeCheck>
        <RangeCheck Comparator="EQ" SoftHard="Soft" def:ItemOID="IT.LB.LBSPEC">
          <CheckValue>WHOLE BLOOD</CheckValue>
        </RangeCheck>
        <RangeCheck Comparator="EQ" SoftHard="Soft" def:ItemOID="IT.LB.LBCAT">
          <CheckValue>HEMATOLOGY</CheckValue>
        </RangeCheck>
        <RangeCheck Comparator="EQ" SoftHard="Soft" def:ItemOID="IT.LB.LBMETHOD">
          <CheckValue>Calculated</CheckValue>
        </RangeCheck>
      </def:WhereClauseDef>
      <def:WhereClauseDef OID="WC.LB.LBORRES.00018">
        <RangeCheck Comparator="EQ" SoftHard="Soft" def:ItemOID="IT.LB.LBTESTCD">
          <CheckValue>BASOLE</CheckValue>
        </RangeCheck>
        <RangeCheck Comparator="EQ" SoftHard="Soft" def:ItemOID="IT.LB.LBSPEC">
          <CheckValue>WHOLE BLOOD</CheckValue>
        </RangeCheck>
        <RangeCheck Comparator="EQ" SoftHard="Soft" def:ItemOID="IT.LB.LBCAT">
          <CheckValue>HEMATOLOGY</CheckValue>
        </RangeCheck>
        <RangeCheck Comparator="EQ" SoftHard="Soft" def:ItemOID="IT.LB.LBMETHOD">
          <CheckValue>Light Scattering Spectroscopy</CheckValue>
        </RangeCheck>
      </def:WhereClauseDef>
      <def:WhereClauseDef OID="WC.LB.LBORRES.00019">
        <RangeCheck Comparator="EQ" SoftHard="Soft" def:ItemOID="IT.LB.LBTESTCD">
          <CheckValue>BILI</CheckValue>
        </RangeCheck>
        <RangeCheck Comparator="EQ" SoftHard="Soft" def:ItemOID="IT.LB.LBSPEC">
          <CheckValue>SERUM</CheckValue>
        </RangeCheck>
        <RangeCheck Comparator="EQ" SoftHard="Soft" def:ItemOID="IT.LB.LBCAT">
          <CheckValue>CLINICAL CHEMISTRY</CheckValue>
        </RangeCheck>
        <RangeCheck Comparator="EQ" SoftHard="Soft" def:ItemOID="IT.LB.LBMETHOD">
          <CheckValue/>
        </RangeCheck>
      </def:WhereClauseDef>
      <def:WhereClauseDef OID="WC.LB.LBORRES.00020">
        <RangeCheck Comparator="EQ" SoftHard="Soft" def:ItemOID="IT.LB.LBTESTCD">
          <CheckValue>BILI</CheckValue>
        </RangeCheck>
        <RangeCheck Comparator="EQ" SoftHard="Soft" def:ItemOID="IT.LB.LBSPEC">
          <CheckValue>URINE</CheckValue>
        </RangeCheck>
        <RangeCheck Comparator="EQ" SoftHard="Soft" def:ItemOID="IT.LB.LBCAT">
          <CheckValue>URINALYSIS</CheckValue>
        </RangeCheck>
        <RangeCheck Comparator="EQ" SoftHard="Soft" def:ItemOID="IT.LB.LBMETHOD">
          <CheckValue/>
        </RangeCheck>
      </def:WhereClauseDef>
      <def:WhereClauseDef OID="WC.LB.LBORRES.00021">
        <RangeCheck Comparator="EQ" SoftHard="Soft" def:ItemOID="IT.LB.LBTESTCD">
          <CheckValue>CA</CheckValue>
        </RangeCheck>
        <RangeCheck Comparator="EQ" SoftHard="Soft" def:ItemOID="IT.LB.LBSPEC">
          <CheckValue>SERUM</CheckValue>
        </RangeCheck>
        <RangeCheck Comparator="EQ" SoftHard="Soft" def:ItemOID="IT.LB.LBCAT">
          <CheckValue>CLINICAL CHEMISTRY</CheckValue>
        </RangeCheck>
        <RangeCheck Comparator="EQ" SoftHard="Soft" def:ItemOID="IT.LB.LBMETHOD">
          <CheckValue/>
        </RangeCheck>
      </def:WhereClauseDef>
      <def:WhereClauseDef OID="WC.LB.LBORRES.00022">
        <RangeCheck Comparator="EQ" SoftHard="Soft" def:ItemOID="IT.LB.LBTESTCD">
          <CheckValue>CACREAT</CheckValue>
        </RangeCheck>
        <RangeCheck Comparator="EQ" SoftHard="Soft" def:ItemOID="IT.LB.LBSPEC">
          <CheckValue>SERUM</CheckValue>
        </RangeCheck>
        <RangeCheck Comparator="EQ" SoftHard="Soft" def:ItemOID="IT.LB.LBCAT">
          <CheckValue>CLINICAL CHEMISTRY</CheckValue>
        </RangeCheck>
        <RangeCheck Comparator="EQ" SoftHard="Soft" def:ItemOID="IT.LB.LBMETHOD">
          <CheckValue/>
        </RangeCheck>
      </def:WhereClauseDef>
      <def:WhereClauseDef OID="WC.LB.LBORRES.00023">
        <RangeCheck Comparator="EQ" SoftHard="Soft" def:ItemOID="IT.LB.LBTESTCD">
          <CheckValue>CAPHOS</CheckValue>
        </RangeCheck>
        <RangeCheck Comparator="EQ" SoftHard="Soft" def:ItemOID="IT.LB.LBSPEC">
          <CheckValue>SERUM</CheckValue>
        </RangeCheck>
        <RangeCheck Comparator="EQ" SoftHard="Soft" def:ItemOID="IT.LB.LBCAT">
          <CheckValue>CLINICAL CHEMISTRY</CheckValue>
        </RangeCheck>
        <RangeCheck Comparator="EQ" SoftHard="Soft" def:ItemOID="IT.LB.LBMETHOD">
          <CheckValue/>
        </RangeCheck>
      </def:WhereClauseDef>
      <def:WhereClauseDef OID="WC.LB.LBORRES.00024">
        <RangeCheck Comparator="EQ" SoftHard="Soft" def:ItemOID="IT.LB.LBTESTCD">
          <CheckValue>CHOL</CheckValue>
        </RangeCheck>
        <RangeCheck Comparator="EQ" SoftHard="Soft" def:ItemOID="IT.LB.LBSPEC">
          <CheckValue>SERUM</CheckValue>
        </RangeCheck>
        <RangeCheck Comparator="EQ" SoftHard="Soft" def:ItemOID="IT.LB.LBCAT">
          <CheckValue>CLINICAL CHEMISTRY</CheckValue>
        </RangeCheck>
        <RangeCheck Comparator="EQ" SoftHard="Soft" def:ItemOID="IT.LB.LBMETHOD">
          <CheckValue/>
        </RangeCheck>
      </def:WhereClauseDef>
      <def:WhereClauseDef OID="WC.LB.LBORRES.00025">
        <RangeCheck Comparator="EQ" SoftHard="Soft" def:ItemOID="IT.LB.LBTESTCD">
          <CheckValue>CL</CheckValue>
        </RangeCheck>
        <RangeCheck Comparator="EQ" SoftHard="Soft" def:ItemOID="IT.LB.LBSPEC">
          <CheckValue>SERUM</CheckValue>
        </RangeCheck>
        <RangeCheck Comparator="EQ" SoftHard="Soft" def:ItemOID="IT.LB.LBCAT">
          <CheckValue>CLINICAL CHEMISTRY</CheckValue>
        </RangeCheck>
        <RangeCheck Comparator="EQ" SoftHard="Soft" def:ItemOID="IT.LB.LBMETHOD">
          <CheckValue/>
        </RangeCheck>
      </def:WhereClauseDef>
      <def:WhereClauseDef OID="WC.LB.LBORRES.00026">
        <RangeCheck Comparator="EQ" SoftHard="Soft" def:ItemOID="IT.LB.LBTESTCD">
          <CheckValue>CLARITY</CheckValue>
        </RangeCheck>
        <RangeCheck Comparator="EQ" SoftHard="Soft" def:ItemOID="IT.LB.LBSPEC">
          <CheckValue>URINE</CheckValue>
        </RangeCheck>
        <RangeCheck Comparator="EQ" SoftHard="Soft" def:ItemOID="IT.LB.LBCAT">
          <CheckValue>URINALYSIS</CheckValue>
        </RangeCheck>
        <RangeCheck Comparator="EQ" SoftHard="Soft" def:ItemOID="IT.LB.LBMETHOD">
          <CheckValue/>
        </RangeCheck>
      </def:WhereClauseDef>
      <def:WhereClauseDef OID="WC.LB.LBORRES.00027">
        <RangeCheck Comparator="EQ" SoftHard="Soft" def:ItemOID="IT.LB.LBTESTCD">
          <CheckValue>COLOR</CheckValue>
        </RangeCheck>
        <RangeCheck Comparator="EQ" SoftHard="Soft" def:ItemOID="IT.LB.LBSPEC">
          <CheckValue>URINE</CheckValue>
        </RangeCheck>
        <RangeCheck Comparator="EQ" SoftHard="Soft" def:ItemOID="IT.LB.LBCAT">
          <CheckValue>URINALYSIS</CheckValue>
        </RangeCheck>
        <RangeCheck Comparator="EQ" SoftHard="Soft" def:ItemOID="IT.LB.LBMETHOD">
          <CheckValue/>
        </RangeCheck>
      </def:WhereClauseDef>
      <def:WhereClauseDef OID="WC.LB.LBORRES.00028">
        <RangeCheck Comparator="EQ" SoftHard="Soft" def:ItemOID="IT.LB.LBTESTCD">
          <CheckValue>CREAT</CheckValue>
        </RangeCheck>
        <RangeCheck Comparator="EQ" SoftHard="Soft" def:ItemOID="IT.LB.LBSPEC">
          <CheckValue>SERUM</CheckValue>
        </RangeCheck>
        <RangeCheck Comparator="EQ" SoftHard="Soft" def:ItemOID="IT.LB.LBCAT">
          <CheckValue>CLINICAL CHEMISTRY</CheckValue>
        </RangeCheck>
        <RangeCheck Comparator="EQ" SoftHard="Soft" def:ItemOID="IT.LB.LBMETHOD">
          <CheckValue/>
        </RangeCheck>
      </def:WhereClauseDef>
      <def:WhereClauseDef OID="WC.LB.LBORRES.00029">
        <RangeCheck Comparator="EQ" SoftHard="Soft" def:ItemOID="IT.LB.LBTESTCD">
          <CheckValue>EOS</CheckValue>
        </RangeCheck>
        <RangeCheck Comparator="EQ" SoftHard="Soft" def:ItemOID="IT.LB.LBSPEC">
          <CheckValue>WHOLE BLOOD</CheckValue>
        </RangeCheck>
        <RangeCheck Comparator="EQ" SoftHard="Soft" def:ItemOID="IT.LB.LBCAT">
          <CheckValue>HEMATOLOGY</CheckValue>
        </RangeCheck>
        <RangeCheck Comparator="EQ" SoftHard="Soft" def:ItemOID="IT.LB.LBMETHOD">
          <CheckValue>Calculated</CheckValue>
        </RangeCheck>
      </def:WhereClauseDef>
      <def:WhereClauseDef OID="WC.LB.LBORRES.00030">
        <RangeCheck Comparator="EQ" SoftHard="Soft" def:ItemOID="IT.LB.LBTESTCD">
          <CheckValue>EOSLE</CheckValue>
        </RangeCheck>
        <RangeCheck Comparator="EQ" SoftHard="Soft" def:ItemOID="IT.LB.LBSPEC">
          <CheckValue>WHOLE BLOOD</CheckValue>
        </RangeCheck>
        <RangeCheck Comparator="EQ" SoftHard="Soft" def:ItemOID="IT.LB.LBCAT">
          <CheckValue>HEMATOLOGY</CheckValue>
        </RangeCheck>
        <RangeCheck Comparator="EQ" SoftHard="Soft" def:ItemOID="IT.LB.LBMETHOD">
          <CheckValue>Light Scattering Spectroscopy</CheckValue>
        </RangeCheck>
      </def:WhereClauseDef>
      <def:WhereClauseDef OID="WC.LB.LBORRES.00031">
        <RangeCheck Comparator="EQ" SoftHard="Soft" def:ItemOID="IT.LB.LBTESTCD">
          <CheckValue>FIBRINO</CheckValue>
        </RangeCheck>
        <RangeCheck Comparator="EQ" SoftHard="Soft" def:ItemOID="IT.LB.LBSPEC">
          <CheckValue>PLASMA</CheckValue>
        </RangeCheck>
        <RangeCheck Comparator="EQ" SoftHard="Soft" def:ItemOID="IT.LB.LBCAT">
          <CheckValue>COAGULATION</CheckValue>
        </RangeCheck>
        <RangeCheck Comparator="EQ" SoftHard="Soft" def:ItemOID="IT.LB.LBMETHOD">
          <CheckValue/>
        </RangeCheck>
      </def:WhereClauseDef>
      <def:WhereClauseDef OID="WC.LB.LBORRES.00032">
        <RangeCheck Comparator="EQ" SoftHard="Soft" def:ItemOID="IT.LB.LBTESTCD">
          <CheckValue>GGT</CheckValue>
        </RangeCheck>
        <RangeCheck Comparator="EQ" SoftHard="Soft" def:ItemOID="IT.LB.LBSPEC">
          <CheckValue>SERUM</CheckValue>
        </RangeCheck>
        <RangeCheck Comparator="EQ" SoftHard="Soft" def:ItemOID="IT.LB.LBCAT">
          <CheckValue>CLINICAL CHEMISTRY</CheckValue>
        </RangeCheck>
        <RangeCheck Comparator="EQ" SoftHard="Soft" def:ItemOID="IT.LB.LBMETHOD">
          <CheckValue/>
        </RangeCheck>
      </def:WhereClauseDef>
      <def:WhereClauseDef OID="WC.LB.LBORRES.00033">
        <RangeCheck Comparator="EQ" SoftHard="Soft" def:ItemOID="IT.LB.LBTESTCD">
          <CheckValue>GLOBUL</CheckValue>
        </RangeCheck>
        <RangeCheck Comparator="EQ" SoftHard="Soft" def:ItemOID="IT.LB.LBSPEC">
          <CheckValue>SERUM</CheckValue>
        </RangeCheck>
        <RangeCheck Comparator="EQ" SoftHard="Soft" def:ItemOID="IT.LB.LBCAT">
          <CheckValue>CLINICAL CHEMISTRY</CheckValue>
        </RangeCheck>
        <RangeCheck Comparator="EQ" SoftHard="Soft" def:ItemOID="IT.LB.LBMETHOD">
          <CheckValue/>
        </RangeCheck>
      </def:WhereClauseDef>
      <def:WhereClauseDef OID="WC.LB.LBORRES.00034">
        <RangeCheck Comparator="EQ" SoftHard="Soft" def:ItemOID="IT.LB.LBTESTCD">
          <CheckValue>GLUC</CheckValue>
        </RangeCheck>
        <RangeCheck Comparator="EQ" SoftHard="Soft" def:ItemOID="IT.LB.LBSPEC">
          <CheckValue>SERUM</CheckValue>
        </RangeCheck>
        <RangeCheck Comparator="EQ" SoftHard="Soft" def:ItemOID="IT.LB.LBCAT">
          <CheckValue>CLINICAL CHEMISTRY</CheckValue>
        </RangeCheck>
        <RangeCheck Comparator="EQ" SoftHard="Soft" def:ItemOID="IT.LB.LBMETHOD">
          <CheckValue/>
        </RangeCheck>
      </def:WhereClauseDef>
      <def:WhereClauseDef OID="WC.LB.LBORRES.00035">
        <RangeCheck Comparator="EQ" SoftHard="Soft" def:ItemOID="IT.LB.LBTESTCD">
          <CheckValue>GLUC</CheckValue>
        </RangeCheck>
        <RangeCheck Comparator="EQ" SoftHard="Soft" def:ItemOID="IT.LB.LBSPEC">
          <CheckValue>URINE</CheckValue>
        </RangeCheck>
        <RangeCheck Comparator="EQ" SoftHard="Soft" def:ItemOID="IT.LB.LBCAT">
          <CheckValue>URINALYSIS</CheckValue>
        </RangeCheck>
        <RangeCheck Comparator="EQ" SoftHard="Soft" def:ItemOID="IT.LB.LBMETHOD">
          <CheckValue/>
        </RangeCheck>
      </def:WhereClauseDef>
      <def:WhereClauseDef OID="WC.LB.LBORRES.00036">
        <RangeCheck Comparator="EQ" SoftHard="Soft" def:ItemOID="IT.LB.LBTESTCD">
          <CheckValue>HCT</CheckValue>
        </RangeCheck>
        <RangeCheck Comparator="EQ" SoftHard="Soft" def:ItemOID="IT.LB.LBSPEC">
          <CheckValue>WHOLE BLOOD</CheckValue>
        </RangeCheck>
        <RangeCheck Comparator="EQ" SoftHard="Soft" def:ItemOID="IT.LB.LBCAT">
          <CheckValue>HEMATOLOGY</CheckValue>
        </RangeCheck>
        <RangeCheck Comparator="EQ" SoftHard="Soft" def:ItemOID="IT.LB.LBMETHOD">
          <CheckValue>Calculated</CheckValue>
        </RangeCheck>
      </def:WhereClauseDef>
      <def:WhereClauseDef OID="WC.LB.LBORRES.00037">
        <RangeCheck Comparator="EQ" SoftHard="Soft" def:ItemOID="IT.LB.LBTESTCD">
          <CheckValue>HGB</CheckValue>
        </RangeCheck>
        <RangeCheck Comparator="EQ" SoftHard="Soft" def:ItemOID="IT.LB.LBSPEC">
          <CheckValue>WHOLE BLOOD</CheckValue>
        </RangeCheck>
        <RangeCheck Comparator="EQ" SoftHard="Soft" def:ItemOID="IT.LB.LBCAT">
          <CheckValue>HEMATOLOGY</CheckValue>
        </RangeCheck>
        <RangeCheck Comparator="EQ" SoftHard="Soft" def:ItemOID="IT.LB.LBMETHOD">
          <CheckValue>Colorimetric</CheckValue>
        </RangeCheck>
      </def:WhereClauseDef>
      <def:WhereClauseDef OID="WC.LB.LBORRES.00038">
        <RangeCheck Comparator="EQ" SoftHard="Soft" def:ItemOID="IT.LB.LBTESTCD">
          <CheckValue>K</CheckValue>
        </RangeCheck>
        <RangeCheck Comparator="EQ" SoftHard="Soft" def:ItemOID="IT.LB.LBSPEC">
          <CheckValue>SERUM</CheckValue>
        </RangeCheck>
        <RangeCheck Comparator="EQ" SoftHard="Soft" def:ItemOID="IT.LB.LBCAT">
          <CheckValue>CLINICAL CHEMISTRY</CheckValue>
        </RangeCheck>
        <RangeCheck Comparator="EQ" SoftHard="Soft" def:ItemOID="IT.LB.LBMETHOD">
          <CheckValue/>
        </RangeCheck>
      </def:WhereClauseDef>
      <def:WhereClauseDef OID="WC.LB.LBORRES.00039">
        <RangeCheck Comparator="EQ" SoftHard="Soft" def:ItemOID="IT.LB.LBTESTCD">
          <CheckValue>KETONES</CheckValue>
        </RangeCheck>
        <RangeCheck Comparator="EQ" SoftHard="Soft" def:ItemOID="IT.LB.LBSPEC">
          <CheckValue>URINE</CheckValue>
        </RangeCheck>
        <RangeCheck Comparator="EQ" SoftHard="Soft" def:ItemOID="IT.LB.LBCAT">
          <CheckValue>URINALYSIS</CheckValue>
        </RangeCheck>
        <RangeCheck Comparator="EQ" SoftHard="Soft" def:ItemOID="IT.LB.LBMETHOD">
          <CheckValue/>
        </RangeCheck>
      </def:WhereClauseDef>
      <def:WhereClauseDef OID="WC.LB.LBORRES.00040">
        <RangeCheck Comparator="EQ" SoftHard="Soft" def:ItemOID="IT.LB.LBTESTCD">
          <CheckValue>LGLUCLE</CheckValue>
        </RangeCheck>
        <RangeCheck Comparator="EQ" SoftHard="Soft" def:ItemOID="IT.LB.LBSPEC">
          <CheckValue>WHOLE BLOOD</CheckValue>
        </RangeCheck>
        <RangeCheck Comparator="EQ" SoftHard="Soft" def:ItemOID="IT.LB.LBCAT">
          <CheckValue>HEMATOLOGY</CheckValue>
        </RangeCheck>
        <RangeCheck Comparator="EQ" SoftHard="Soft" def:ItemOID="IT.LB.LBMETHOD">
          <CheckValue>Light Scattering Spectroscopy</CheckValue>
        </RangeCheck>
      </def:WhereClauseDef>
      <def:WhereClauseDef OID="WC.LB.LBORRES.00041">
        <RangeCheck Comparator="EQ" SoftHard="Soft" def:ItemOID="IT.LB.LBTESTCD">
          <CheckValue>LGUNSCE</CheckValue>
        </RangeCheck>
        <RangeCheck Comparator="EQ" SoftHard="Soft" def:ItemOID="IT.LB.LBSPEC">
          <CheckValue>WHOLE BLOOD</CheckValue>
        </RangeCheck>
        <RangeCheck Comparator="EQ" SoftHard="Soft" def:ItemOID="IT.LB.LBCAT">
          <CheckValue>HEMATOLOGY</CheckValue>
        </RangeCheck>
        <RangeCheck Comparator="EQ" SoftHard="Soft" def:ItemOID="IT.LB.LBMETHOD">
          <CheckValue>Calculated</CheckValue>
        </RangeCheck>
      </def:WhereClauseDef>
      <def:WhereClauseDef OID="WC.LB.LBORRES.00042">
        <RangeCheck Comparator="EQ" SoftHard="Soft" def:ItemOID="IT.LB.LBTESTCD">
          <CheckValue>LYM</CheckValue>
        </RangeCheck>
        <RangeCheck Comparator="EQ" SoftHard="Soft" def:ItemOID="IT.LB.LBSPEC">
          <CheckValue>WHOLE BLOOD</CheckValue>
        </RangeCheck>
        <RangeCheck Comparator="EQ" SoftHard="Soft" def:ItemOID="IT.LB.LBCAT">
          <CheckValue>HEMATOLOGY</CheckValue>
        </RangeCheck>
        <RangeCheck Comparator="EQ" SoftHard="Soft" def:ItemOID="IT.LB.LBMETHOD">
          <CheckValue>Calculated</CheckValue>
        </RangeCheck>
      </def:WhereClauseDef>
      <def:WhereClauseDef OID="WC.LB.LBORRES.00043">
        <RangeCheck Comparator="EQ" SoftHard="Soft" def:ItemOID="IT.LB.LBTESTCD">
          <CheckValue>LYMLE</CheckValue>
        </RangeCheck>
        <RangeCheck Comparator="EQ" SoftHard="Soft" def:ItemOID="IT.LB.LBSPEC">
          <CheckValue>WHOLE BLOOD</CheckValue>
        </RangeCheck>
        <RangeCheck Comparator="EQ" SoftHard="Soft" def:ItemOID="IT.LB.LBCAT">
          <CheckValue>HEMATOLOGY</CheckValue>
        </RangeCheck>
        <RangeCheck Comparator="EQ" SoftHard="Soft" def:ItemOID="IT.LB.LBMETHOD">
          <CheckValue>Light Scattering Spectroscopy</CheckValue>
        </RangeCheck>
      </def:WhereClauseDef>
      <def:WhereClauseDef OID="WC.LB.LBORRES.00044">
        <RangeCheck Comparator="EQ" SoftHard="Soft" def:ItemOID="IT.LB.LBTESTCD">
          <CheckValue>MCH</CheckValue>
        </RangeCheck>
        <RangeCheck Comparator="EQ" SoftHard="Soft" def:ItemOID="IT.LB.LBSPEC">
          <CheckValue>WHOLE BLOOD</CheckValue>
        </RangeCheck>
        <RangeCheck Comparator="EQ" SoftHard="Soft" def:ItemOID="IT.LB.LBCAT">
          <CheckValue>HEMATOLOGY</CheckValue>
        </RangeCheck>
        <RangeCheck Comparator="EQ" SoftHard="Soft" def:ItemOID="IT.LB.LBMETHOD">
          <CheckValue>Calculated</CheckValue>
        </RangeCheck>
      </def:WhereClauseDef>
      <def:WhereClauseDef OID="WC.LB.LBORRES.00045">
        <RangeCheck Comparator="EQ" SoftHard="Soft" def:ItemOID="IT.LB.LBTESTCD">
          <CheckValue>MCHC</CheckValue>
        </RangeCheck>
        <RangeCheck Comparator="EQ" SoftHard="Soft" def:ItemOID="IT.LB.LBSPEC">
          <CheckValue>WHOLE BLOOD</CheckValue>
        </RangeCheck>
        <RangeCheck Comparator="EQ" SoftHard="Soft" def:ItemOID="IT.LB.LBCAT">
          <CheckValue>HEMATOLOGY</CheckValue>
        </RangeCheck>
        <RangeCheck Comparator="EQ" SoftHard="Soft" def:ItemOID="IT.LB.LBMETHOD">
          <CheckValue>Calculated</CheckValue>
        </RangeCheck>
      </def:WhereClauseDef>
      <def:WhereClauseDef OID="WC.LB.LBORRES.00046">
        <RangeCheck Comparator="EQ" SoftHard="Soft" def:ItemOID="IT.LB.LBTESTCD">
          <CheckValue>MCV</CheckValue>
        </RangeCheck>
        <RangeCheck Comparator="EQ" SoftHard="Soft" def:ItemOID="IT.LB.LBSPEC">
          <CheckValue>WHOLE BLOOD</CheckValue>
        </RangeCheck>
        <RangeCheck Comparator="EQ" SoftHard="Soft" def:ItemOID="IT.LB.LBCAT">
          <CheckValue>HEMATOLOGY</CheckValue>
        </RangeCheck>
        <RangeCheck Comparator="EQ" SoftHard="Soft" def:ItemOID="IT.LB.LBMETHOD">
          <CheckValue>Calculated</CheckValue>
        </RangeCheck>
      </def:WhereClauseDef>
      <def:WhereClauseDef OID="WC.LB.LBORRES.00047">
        <RangeCheck Comparator="EQ" SoftHard="Soft" def:ItemOID="IT.LB.LBTESTCD">
          <CheckValue>MONO</CheckValue>
        </RangeCheck>
        <RangeCheck Comparator="EQ" SoftHard="Soft" def:ItemOID="IT.LB.LBSPEC">
          <CheckValue>WHOLE BLOOD</CheckValue>
        </RangeCheck>
        <RangeCheck Comparator="EQ" SoftHard="Soft" def:ItemOID="IT.LB.LBCAT">
          <CheckValue>HEMATOLOGY</CheckValue>
        </RangeCheck>
        <RangeCheck Comparator="EQ" SoftHard="Soft" def:ItemOID="IT.LB.LBMETHOD">
          <CheckValue>Calculated</CheckValue>
        </RangeCheck>
      </def:WhereClauseDef>
      <def:WhereClauseDef OID="WC.LB.LBORRES.00048">
        <RangeCheck Comparator="EQ" SoftHard="Soft" def:ItemOID="IT.LB.LBTESTCD">
          <CheckValue>MONOLE</CheckValue>
        </RangeCheck>
        <RangeCheck Comparator="EQ" SoftHard="Soft" def:ItemOID="IT.LB.LBSPEC">
          <CheckValue>WHOLE BLOOD</CheckValue>
        </RangeCheck>
        <RangeCheck Comparator="EQ" SoftHard="Soft" def:ItemOID="IT.LB.LBCAT">
          <CheckValue>HEMATOLOGY</CheckValue>
        </RangeCheck>
        <RangeCheck Comparator="EQ" SoftHard="Soft" def:ItemOID="IT.LB.LBMETHOD">
          <CheckValue>Light Scattering Spectroscopy</CheckValue>
        </RangeCheck>
      </def:WhereClauseDef>
      <def:WhereClauseDef OID="WC.LB.LBORRES.00049">
        <RangeCheck Comparator="EQ" SoftHard="Soft" def:ItemOID="IT.LB.LBTESTCD">
          <CheckValue>NAK</CheckValue>
        </RangeCheck>
        <RangeCheck Comparator="EQ" SoftHard="Soft" def:ItemOID="IT.LB.LBSPEC">
          <CheckValue>SERUM</CheckValue>
        </RangeCheck>
        <RangeCheck Comparator="EQ" SoftHard="Soft" def:ItemOID="IT.LB.LBCAT">
          <CheckValue>CLINICAL CHEMISTRY</CheckValue>
        </RangeCheck>
        <RangeCheck Comparator="EQ" SoftHard="Soft" def:ItemOID="IT.LB.LBMETHOD">
          <CheckValue/>
        </RangeCheck>
      </def:WhereClauseDef>
      <def:WhereClauseDef OID="WC.LB.LBORRES.00050">
        <RangeCheck Comparator="EQ" SoftHard="Soft" def:ItemOID="IT.LB.LBTESTCD">
          <CheckValue>NEUT</CheckValue>
        </RangeCheck>
        <RangeCheck Comparator="EQ" SoftHard="Soft" def:ItemOID="IT.LB.LBSPEC">
          <CheckValue>WHOLE BLOOD</CheckValue>
        </RangeCheck>
        <RangeCheck Comparator="EQ" SoftHard="Soft" def:ItemOID="IT.LB.LBCAT">
          <CheckValue>HEMATOLOGY</CheckValue>
        </RangeCheck>
        <RangeCheck Comparator="EQ" SoftHard="Soft" def:ItemOID="IT.LB.LBMETHOD">
          <CheckValue>Calculated</CheckValue>
        </RangeCheck>
      </def:WhereClauseDef>
      <def:WhereClauseDef OID="WC.LB.LBORRES.00051">
        <RangeCheck Comparator="EQ" SoftHard="Soft" def:ItemOID="IT.LB.LBTESTCD">
          <CheckValue>NEUTLE</CheckValue>
        </RangeCheck>
        <RangeCheck Comparator="EQ" SoftHard="Soft" def:ItemOID="IT.LB.LBSPEC">
          <CheckValue>WHOLE BLOOD</CheckValue>
        </RangeCheck>
        <RangeCheck Comparator="EQ" SoftHard="Soft" def:ItemOID="IT.LB.LBCAT">
          <CheckValue>HEMATOLOGY</CheckValue>
        </RangeCheck>
        <RangeCheck Comparator="EQ" SoftHard="Soft" def:ItemOID="IT.LB.LBMETHOD">
          <CheckValue>Light Scattering Spectroscopy</CheckValue>
        </RangeCheck>
      </def:WhereClauseDef>
      <def:WhereClauseDef OID="WC.LB.LBORRES.00052">
        <RangeCheck Comparator="EQ" SoftHard="Soft" def:ItemOID="IT.LB.LBTESTCD">
          <CheckValue>OCCBLD</CheckValue>
        </RangeCheck>
        <RangeCheck Comparator="EQ" SoftHard="Soft" def:ItemOID="IT.LB.LBSPEC">
          <CheckValue>URINE</CheckValue>
        </RangeCheck>
        <RangeCheck Comparator="EQ" SoftHard="Soft" def:ItemOID="IT.LB.LBCAT">
          <CheckValue>URINALYSIS</CheckValue>
        </RangeCheck>
        <RangeCheck Comparator="EQ" SoftHard="Soft" def:ItemOID="IT.LB.LBMETHOD">
          <CheckValue/>
        </RangeCheck>
      </def:WhereClauseDef>
      <def:WhereClauseDef OID="WC.LB.LBORRES.00053">
        <RangeCheck Comparator="EQ" SoftHard="Soft" def:ItemOID="IT.LB.LBTESTCD">
          <CheckValue>PH</CheckValue>
        </RangeCheck>
        <RangeCheck Comparator="EQ" SoftHard="Soft" def:ItemOID="IT.LB.LBSPEC">
          <CheckValue>URINE</CheckValue>
        </RangeCheck>
        <RangeCheck Comparator="EQ" SoftHard="Soft" def:ItemOID="IT.LB.LBCAT">
          <CheckValue>URINALYSIS</CheckValue>
        </RangeCheck>
        <RangeCheck Comparator="EQ" SoftHard="Soft" def:ItemOID="IT.LB.LBMETHOD">
          <CheckValue/>
        </RangeCheck>
      </def:WhereClauseDef>
      <def:WhereClauseDef OID="WC.LB.LBORRES.00054">
        <RangeCheck Comparator="EQ" SoftHard="Soft" def:ItemOID="IT.LB.LBTESTCD">
          <CheckValue>PHOS</CheckValue>
        </RangeCheck>
        <RangeCheck Comparator="EQ" SoftHard="Soft" def:ItemOID="IT.LB.LBSPEC">
          <CheckValue>SERUM</CheckValue>
        </RangeCheck>
        <RangeCheck Comparator="EQ" SoftHard="Soft" def:ItemOID="IT.LB.LBCAT">
          <CheckValue>CLINICAL CHEMISTRY</CheckValue>
        </RangeCheck>
        <RangeCheck Comparator="EQ" SoftHard="Soft" def:ItemOID="IT.LB.LBMETHOD">
          <CheckValue/>
        </RangeCheck>
      </def:WhereClauseDef>
      <def:WhereClauseDef OID="WC.LB.LBORRES.00055">
        <RangeCheck Comparator="EQ" SoftHard="Soft" def:ItemOID="IT.LB.LBTESTCD">
          <CheckValue>PHOSCRT</CheckValue>
        </RangeCheck>
        <RangeCheck Comparator="EQ" SoftHard="Soft" def:ItemOID="IT.LB.LBSPEC">
          <CheckValue>SERUM</CheckValue>
        </RangeCheck>
        <RangeCheck Comparator="EQ" SoftHard="Soft" def:ItemOID="IT.LB.LBCAT">
          <CheckValue>CLINICAL CHEMISTRY</CheckValue>
        </RangeCheck>
        <RangeCheck Comparator="EQ" SoftHard="Soft" def:ItemOID="IT.LB.LBMETHOD">
          <CheckValue/>
        </RangeCheck>
      </def:WhereClauseDef>
      <def:WhereClauseDef OID="WC.LB.LBORRES.00056">
        <RangeCheck Comparator="EQ" SoftHard="Soft" def:ItemOID="IT.LB.LBTESTCD">
          <CheckValue>PLAT</CheckValue>
        </RangeCheck>
        <RangeCheck Comparator="EQ" SoftHard="Soft" def:ItemOID="IT.LB.LBSPEC">
          <CheckValue>WHOLE BLOOD</CheckValue>
        </RangeCheck>
        <RangeCheck Comparator="EQ" SoftHard="Soft" def:ItemOID="IT.LB.LBCAT">
          <CheckValue>HEMATOLOGY</CheckValue>
        </RangeCheck>
        <RangeCheck Comparator="EQ" SoftHard="Soft" def:ItemOID="IT.LB.LBMETHOD">
          <CheckValue>Light Scattering Spectroscopy</CheckValue>
        </RangeCheck>
      </def:WhereClauseDef>
      <def:WhereClauseDef OID="WC.LB.LBORRES.00057">
        <RangeCheck Comparator="EQ" SoftHard="Soft" def:ItemOID="IT.LB.LBTESTCD">
          <CheckValue>PROT</CheckValue>
        </RangeCheck>
        <RangeCheck Comparator="EQ" SoftHard="Soft" def:ItemOID="IT.LB.LBSPEC">
          <CheckValue>SERUM</CheckValue>
        </RangeCheck>
        <RangeCheck Comparator="EQ" SoftHard="Soft" def:ItemOID="IT.LB.LBCAT">
          <CheckValue>CLINICAL CHEMISTRY</CheckValue>
        </RangeCheck>
        <RangeCheck Comparator="EQ" SoftHard="Soft" def:ItemOID="IT.LB.LBMETHOD">
          <CheckValue/>
        </RangeCheck>
      </def:WhereClauseDef>
      <def:WhereClauseDef OID="WC.LB.LBORRES.00058">
        <RangeCheck Comparator="EQ" SoftHard="Soft" def:ItemOID="IT.LB.LBTESTCD">
          <CheckValue>PROT</CheckValue>
        </RangeCheck>
        <RangeCheck Comparator="EQ" SoftHard="Soft" def:ItemOID="IT.LB.LBSPEC">
          <CheckValue>URINE</CheckValue>
        </RangeCheck>
        <RangeCheck Comparator="EQ" SoftHard="Soft" def:ItemOID="IT.LB.LBCAT">
          <CheckValue>URINALYSIS</CheckValue>
        </RangeCheck>
        <RangeCheck Comparator="EQ" SoftHard="Soft" def:ItemOID="IT.LB.LBMETHOD">
          <CheckValue/>
        </RangeCheck>
      </def:WhereClauseDef>
      <def:WhereClauseDef OID="WC.LB.LBORRES.00059">
        <RangeCheck Comparator="EQ" SoftHard="Soft" def:ItemOID="IT.LB.LBTESTCD">
          <CheckValue>PT</CheckValue>
        </RangeCheck>
        <RangeCheck Comparator="EQ" SoftHard="Soft" def:ItemOID="IT.LB.LBSPEC">
          <CheckValue>PLASMA</CheckValue>
        </RangeCheck>
        <RangeCheck Comparator="EQ" SoftHard="Soft" def:ItemOID="IT.LB.LBCAT">
          <CheckValue>COAGULATION</CheckValue>
        </RangeCheck>
        <RangeCheck Comparator="EQ" SoftHard="Soft" def:ItemOID="IT.LB.LBMETHOD">
          <CheckValue/>
        </RangeCheck>
      </def:WhereClauseDef>
      <def:WhereClauseDef OID="WC.LB.LBORRES.00060">
        <RangeCheck Comparator="EQ" SoftHard="Soft" def:ItemOID="IT.LB.LBTESTCD">
          <CheckValue>RBC</CheckValue>
        </RangeCheck>
        <RangeCheck Comparator="EQ" SoftHard="Soft" def:ItemOID="IT.LB.LBSPEC">
          <CheckValue>WHOLE BLOOD</CheckValue>
        </RangeCheck>
        <RangeCheck Comparator="EQ" SoftHard="Soft" def:ItemOID="IT.LB.LBCAT">
          <CheckValue>HEMATOLOGY</CheckValue>
        </RangeCheck>
        <RangeCheck Comparator="EQ" SoftHard="Soft" def:ItemOID="IT.LB.LBMETHOD">
          <CheckValue>Light Scattering Spectroscopy</CheckValue>
        </RangeCheck>
      </def:WhereClauseDef>
      <def:WhereClauseDef OID="WC.LB.LBORRES.00061">
        <RangeCheck Comparator="EQ" SoftHard="Soft" def:ItemOID="IT.LB.LBTESTCD">
          <CheckValue>RDW</CheckValue>
        </RangeCheck>
        <RangeCheck Comparator="EQ" SoftHard="Soft" def:ItemOID="IT.LB.LBSPEC">
          <CheckValue>WHOLE BLOOD</CheckValue>
        </RangeCheck>
        <RangeCheck Comparator="EQ" SoftHard="Soft" def:ItemOID="IT.LB.LBCAT">
          <CheckValue>HEMATOLOGY</CheckValue>
        </RangeCheck>
        <RangeCheck Comparator="EQ" SoftHard="Soft" def:ItemOID="IT.LB.LBMETHOD">
          <CheckValue>Calculated</CheckValue>
        </RangeCheck>
      </def:WhereClauseDef>
      <def:WhereClauseDef OID="WC.LB.LBORRES.00062">
        <RangeCheck Comparator="EQ" SoftHard="Soft" def:ItemOID="IT.LB.LBTESTCD">
          <CheckValue>RETI</CheckValue>
        </RangeCheck>
        <RangeCheck Comparator="EQ" SoftHard="Soft" def:ItemOID="IT.LB.LBSPEC">
          <CheckValue>WHOLE BLOOD</CheckValue>
        </RangeCheck>
        <RangeCheck Comparator="EQ" SoftHard="Soft" def:ItemOID="IT.LB.LBCAT">
          <CheckValue>HEMATOLOGY</CheckValue>
        </RangeCheck>
        <RangeCheck Comparator="EQ" SoftHard="Soft" def:ItemOID="IT.LB.LBMETHOD">
          <CheckValue>Calculated</CheckValue>
        </RangeCheck>
      </def:WhereClauseDef>
      <def:WhereClauseDef OID="WC.LB.LBORRES.00063">
        <RangeCheck Comparator="EQ" SoftHard="Soft" def:ItemOID="IT.LB.LBTESTCD">
          <CheckValue>RETIRBC</CheckValue>
        </RangeCheck>
        <RangeCheck Comparator="EQ" SoftHard="Soft" def:ItemOID="IT.LB.LBSPEC">
          <CheckValue>WHOLE BLOOD</CheckValue>
        </RangeCheck>
        <RangeCheck Comparator="EQ" SoftHard="Soft" def:ItemOID="IT.LB.LBCAT">
          <CheckValue>HEMATOLOGY</CheckValue>
        </RangeCheck>
        <RangeCheck Comparator="EQ" SoftHard="Soft" def:ItemOID="IT.LB.LBMETHOD">
          <CheckValue>Light Scattering Spectroscopy</CheckValue>
        </RangeCheck>
      </def:WhereClauseDef>
      <def:WhereClauseDef OID="WC.LB.LBORRES.00064">
        <RangeCheck Comparator="EQ" SoftHard="Soft" def:ItemOID="IT.LB.LBTESTCD">
          <CheckValue>SAQB</CheckValue>
        </RangeCheck>
        <RangeCheck Comparator="EQ" SoftHard="Soft" def:ItemOID="IT.LB.LBSPEC">
          <CheckValue>SERUM</CheckValue>
        </RangeCheck>
        <RangeCheck Comparator="EQ" SoftHard="Soft" def:ItemOID="IT.LB.LBCAT">
          <CheckValue>CLINICAL CHEMISTRY</CheckValue>
        </RangeCheck>
        <RangeCheck Comparator="EQ" SoftHard="Soft" def:ItemOID="IT.LB.LBMETHOD">
          <CheckValue/>
        </RangeCheck>
      </def:WhereClauseDef>
      <def:WhereClauseDef OID="WC.LB.LBORRES.00065">
        <RangeCheck Comparator="EQ" SoftHard="Soft" def:ItemOID="IT.LB.LBTESTCD">
          <CheckValue>SODIUM</CheckValue>
        </RangeCheck>
        <RangeCheck Comparator="EQ" SoftHard="Soft" def:ItemOID="IT.LB.LBSPEC">
          <CheckValue>SERUM</CheckValue>
        </RangeCheck>
        <RangeCheck Comparator="EQ" SoftHard="Soft" def:ItemOID="IT.LB.LBCAT">
          <CheckValue>CLINICAL CHEMISTRY</CheckValue>
        </RangeCheck>
        <RangeCheck Comparator="EQ" SoftHard="Soft" def:ItemOID="IT.LB.LBMETHOD">
          <CheckValue/>
        </RangeCheck>
      </def:WhereClauseDef>
      <def:WhereClauseDef OID="WC.LB.LBORRES.00066">
        <RangeCheck Comparator="EQ" SoftHard="Soft" def:ItemOID="IT.LB.LBTESTCD">
          <CheckValue>SPGRAV</CheckValue>
        </RangeCheck>
        <RangeCheck Comparator="EQ" SoftHard="Soft" def:ItemOID="IT.LB.LBSPEC">
          <CheckValue>URINE</CheckValue>
        </RangeCheck>
        <RangeCheck Comparator="EQ" SoftHard="Soft" def:ItemOID="IT.LB.LBCAT">
          <CheckValue>URINALYSIS</CheckValue>
        </RangeCheck>
        <RangeCheck Comparator="EQ" SoftHard="Soft" def:ItemOID="IT.LB.LBMETHOD">
          <CheckValue/>
        </RangeCheck>
      </def:WhereClauseDef>
      <def:WhereClauseDef OID="WC.LB.LBORRES.00067">
        <RangeCheck Comparator="EQ" SoftHard="Soft" def:ItemOID="IT.LB.LBTESTCD">
          <CheckValue>TRIG</CheckValue>
        </RangeCheck>
        <RangeCheck Comparator="EQ" SoftHard="Soft" def:ItemOID="IT.LB.LBSPEC">
          <CheckValue>SERUM</CheckValue>
        </RangeCheck>
        <RangeCheck Comparator="EQ" SoftHard="Soft" def:ItemOID="IT.LB.LBCAT">
          <CheckValue>CLINICAL CHEMISTRY</CheckValue>
        </RangeCheck>
        <RangeCheck Comparator="EQ" SoftHard="Soft" def:ItemOID="IT.LB.LBMETHOD">
          <CheckValue/>
        </RangeCheck>
      </def:WhereClauseDef>
      <def:WhereClauseDef OID="WC.LB.LBORRES.00068">
        <RangeCheck Comparator="EQ" SoftHard="Soft" def:ItemOID="IT.LB.LBTESTCD">
          <CheckValue>UREAN</CheckValue>
        </RangeCheck>
        <RangeCheck Comparator="EQ" SoftHard="Soft" def:ItemOID="IT.LB.LBSPEC">
          <CheckValue>SERUM</CheckValue>
        </RangeCheck>
        <RangeCheck Comparator="EQ" SoftHard="Soft" def:ItemOID="IT.LB.LBCAT">
          <CheckValue>CLINICAL CHEMISTRY</CheckValue>
        </RangeCheck>
        <RangeCheck Comparator="EQ" SoftHard="Soft" def:ItemOID="IT.LB.LBMETHOD">
          <CheckValue/>
        </RangeCheck>
      </def:WhereClauseDef>
      <def:WhereClauseDef OID="WC.LB.LBORRES.00069">
        <RangeCheck Comparator="EQ" SoftHard="Soft" def:ItemOID="IT.LB.LBTESTCD">
          <CheckValue>UREANCRT</CheckValue>
        </RangeCheck>
        <RangeCheck Comparator="EQ" SoftHard="Soft" def:ItemOID="IT.LB.LBSPEC">
          <CheckValue>SERUM</CheckValue>
        </RangeCheck>
        <RangeCheck Comparator="EQ" SoftHard="Soft" def:ItemOID="IT.LB.LBCAT">
          <CheckValue>CLINICAL CHEMISTRY</CheckValue>
        </RangeCheck>
        <RangeCheck Comparator="EQ" SoftHard="Soft" def:ItemOID="IT.LB.LBMETHOD">
          <CheckValue/>
        </RangeCheck>
      </def:WhereClauseDef>
      <def:WhereClauseDef OID="WC.LB.LBORRES.00070">
        <RangeCheck Comparator="EQ" SoftHard="Soft" def:ItemOID="IT.LB.LBTESTCD">
          <CheckValue>WBC</CheckValue>
        </RangeCheck>
        <RangeCheck Comparator="EQ" SoftHard="Soft" def:ItemOID="IT.LB.LBSPEC">
          <CheckValue>WHOLE BLOOD</CheckValue>
        </RangeCheck>
        <RangeCheck Comparator="EQ" SoftHard="Soft" def:ItemOID="IT.LB.LBCAT">
          <CheckValue>HEMATOLOGY</CheckValue>
        </RangeCheck>
        <RangeCheck Comparator="EQ" SoftHard="Soft" def:ItemOID="IT.LB.LBMETHOD">
          <CheckValue>Light Scattering Spectroscopy</CheckValue>
        </RangeCheck>
      </def:WhereClauseDef>
      <def:WhereClauseDef OID="WC.OM.OMORRES.00071">
        <RangeCheck Comparator="EQ" SoftHard="Soft" def:ItemOID="IT.OM.OMTESTCD">
          <CheckValue>LENGTH</CheckValue>
        </RangeCheck>
      </def:WhereClauseDef>
      <def:WhereClauseDef OID="WC.OM.OMORRES.00072">
        <RangeCheck Comparator="EQ" SoftHard="Soft" def:ItemOID="IT.OM.OMTESTCD">
          <CheckValue>OWBW</CheckValue>
        </RangeCheck>
      </def:WhereClauseDef>
      <def:WhereClauseDef OID="WC.OM.OMORRES.00073">
        <RangeCheck Comparator="EQ" SoftHard="Soft" def:ItemOID="IT.OM.OMTESTCD">
          <CheckValue>WEIGHT</CheckValue>
        </RangeCheck>
      </def:WhereClauseDef>
      <def:WhereClauseDef OID="WC.SUPPCL.QVAL.00074">
        <RangeCheck Comparator="EQ" SoftHard="Soft" def:ItemOID="IT.SUPPCL.QNAM">
          <CheckValue>CLRESMOD</CheckValue>
        </RangeCheck>
      </def:WhereClauseDef>
      <def:WhereClauseDef OID="WC.TS.TSVAL.00075">
        <RangeCheck Comparator="EQ" SoftHard="Soft" def:ItemOID="IT.TS.TSPARMCD">
          <CheckValue>AGE</CheckValue>
        </RangeCheck>
      </def:WhereClauseDef>
      <def:WhereClauseDef OID="WC.TS.TSVAL.00076">
        <RangeCheck Comparator="EQ" SoftHard="Soft" def:ItemOID="IT.TS.TSPARMCD">
          <CheckValue>AGEU</CheckValue>
        </RangeCheck>
      </def:WhereClauseDef>
      <def:WhereClauseDef OID="WC.TS.TSVAL.00077">
        <RangeCheck Comparator="EQ" SoftHard="Soft" def:ItemOID="IT.TS.TSPARMCD">
          <CheckValue>BEDCHNG</CheckValue>
        </RangeCheck>
      </def:WhereClauseDef>
      <def:WhereClauseDef OID="WC.TS.TSVAL.00078">
        <RangeCheck Comparator="EQ" SoftHard="Soft" def:ItemOID="IT.TS.TSPARMCD">
          <CheckValue>BEDDING</CheckValue>
        </RangeCheck>
      </def:WhereClauseDef>
      <def:WhereClauseDef OID="WC.TS.TSVAL.00079">
        <RangeCheck Comparator="EQ" SoftHard="Soft" def:ItemOID="IT.TS.TSPARMCD">
          <CheckValue>DIET</CheckValue>
        </RangeCheck>
      </def:WhereClauseDef>
      <def:WhereClauseDef OID="WC.TS.TSVAL.00080">
        <RangeCheck Comparator="EQ" SoftHard="Soft" def:ItemOID="IT.TS.TSPARMCD">
          <CheckValue>DOSDUR</CheckValue>
        </RangeCheck>
      </def:WhereClauseDef>
      <def:WhereClauseDef OID="WC.TS.TSVAL.00081">
        <RangeCheck Comparator="EQ" SoftHard="Soft" def:ItemOID="IT.TS.TSPARMCD">
          <CheckValue>DOSENDTC</CheckValue>
        </RangeCheck>
      </def:WhereClauseDef>
      <def:WhereClauseDef OID="WC.TS.TSVAL.00082">
        <RangeCheck Comparator="EQ" SoftHard="Soft" def:ItemOID="IT.TS.TSPARMCD">
          <CheckValue>DOSSTDTC</CheckValue>
        </RangeCheck>
      </def:WhereClauseDef>
      <def:WhereClauseDef OID="WC.TS.TSVAL.00083">
        <RangeCheck Comparator="EQ" SoftHard="Soft" def:ItemOID="IT.TS.TSPARMCD">
          <CheckValue>ENVTEMP</CheckValue>
        </RangeCheck>
      </def:WhereClauseDef>
      <def:WhereClauseDef OID="WC.TS.TSVAL.00084">
        <RangeCheck Comparator="EQ" SoftHard="Soft" def:ItemOID="IT.TS.TSPARMCD">
          <CheckValue>ENVTEMPU</CheckValue>
        </RangeCheck>
      </def:WhereClauseDef>
      <def:WhereClauseDef OID="WC.TS.TSVAL.00085">
        <RangeCheck Comparator="EQ" SoftHard="Soft" def:ItemOID="IT.TS.TSPARMCD">
          <CheckValue>EXPENDTC</CheckValue>
        </RangeCheck>
      </def:WhereClauseDef>
      <def:WhereClauseDef OID="WC.TS.TSVAL.00086">
        <RangeCheck Comparator="EQ" SoftHard="Soft" def:ItemOID="IT.TS.TSPARMCD">
          <CheckValue>EXPSTDTC</CheckValue>
        </RangeCheck>
      </def:WhereClauseDef>
      <def:WhereClauseDef OID="WC.TS.TSVAL.00087">
        <RangeCheck Comparator="EQ" SoftHard="Soft" def:ItemOID="IT.TS.TSPARMCD">
          <CheckValue>FEEDREG</CheckValue>
        </RangeCheck>
      </def:WhereClauseDef>
      <def:WhereClauseDef OID="WC.TS.TSVAL.00088">
        <RangeCheck Comparator="EQ" SoftHard="Soft" def:ItemOID="IT.TS.TSPARMCD">
          <CheckValue>GLPFL</CheckValue>
        </RangeCheck>
      </def:WhereClauseDef>
      <def:WhereClauseDef OID="WC.TS.TSVAL.00089">
        <RangeCheck Comparator="EQ" SoftHard="Soft" def:ItemOID="IT.TS.TSPARMCD">
          <CheckValue>GLPTYP</CheckValue>
        </RangeCheck>
      </def:WhereClauseDef>
      <def:WhereClauseDef OID="WC.TS.TSVAL.00090">
        <RangeCheck Comparator="EQ" SoftHard="Soft" def:ItemOID="IT.TS.TSPARMCD">
          <CheckValue>HOUSEGRP</CheckValue>
        </RangeCheck>
      </def:WhereClauseDef>
      <def:WhereClauseDef OID="WC.TS.TSVAL.00091">
        <RangeCheck Comparator="EQ" SoftHard="Soft" def:ItemOID="IT.TS.TSPARMCD">
          <CheckValue>HOUSETYP</CheckValue>
        </RangeCheck>
      </def:WhereClauseDef>
      <def:WhereClauseDef OID="WC.TS.TSVAL.00092">
        <RangeCheck Comparator="EQ" SoftHard="Soft" def:ItemOID="IT.TS.TSPARMCD">
          <CheckValue>HUMIDT</CheckValue>
        </RangeCheck>
      </def:WhereClauseDef>
      <def:WhereClauseDef OID="WC.TS.TSVAL.00093">
        <RangeCheck Comparator="EQ" SoftHard="Soft" def:ItemOID="IT.TS.TSPARMCD">
          <CheckValue>HUMIDTU</CheckValue>
        </RangeCheck>
      </def:WhereClauseDef>
      <def:WhereClauseDef OID="WC.TS.TSVAL.00094">
        <RangeCheck Comparator="EQ" SoftHard="Soft" def:ItemOID="IT.TS.TSPARMCD">
          <CheckValue>IDMETH</CheckValue>
        </RangeCheck>
      </def:WhereClauseDef>
      <def:WhereClauseDef OID="WC.TS.TSVAL.00095">
        <RangeCheck Comparator="EQ" SoftHard="Soft" def:ItemOID="IT.TS.TSPARMCD">
          <CheckValue>LIGHT</CheckValue>
        </RangeCheck>
      </def:WhereClauseDef>
      <def:WhereClauseDef OID="WC.TS.TSVAL.00096">
        <RangeCheck Comparator="EQ" SoftHard="Soft" def:ItemOID="IT.TS.TSPARMCD">
          <CheckValue>MTHTRM</CheckValue>
        </RangeCheck>
      </def:WhereClauseDef>
      <def:WhereClauseDef OID="WC.TS.TSVAL.00097">
        <RangeCheck Comparator="EQ" SoftHard="Soft" def:ItemOID="IT.TS.TSPARMCD">
          <CheckValue>PCLASS</CheckValue>
        </RangeCheck>
      </def:WhereClauseDef>
      <def:WhereClauseDef OID="WC.TS.TSVAL.00098">
        <RangeCheck Comparator="EQ" SoftHard="Soft" def:ItemOID="IT.TS.TSPARMCD">
          <CheckValue>RECSAC</CheckValue>
        </RangeCheck>
      </def:WhereClauseDef>
      <def:WhereClauseDef OID="WC.TS.TSVAL.00099">
        <RangeCheck Comparator="EQ" SoftHard="Soft" def:ItemOID="IT.TS.TSPARMCD">
          <CheckValue>ROUTE</CheckValue>
        </RangeCheck>
      </def:WhereClauseDef>
      <def:WhereClauseDef OID="WC.TS.TSVAL.00100">
        <RangeCheck Comparator="EQ" SoftHard="Soft" def:ItemOID="IT.TS.TSPARMCD">
          <CheckValue>SDESIGN</CheckValue>
        </RangeCheck>
      </def:WhereClauseDef>
      <def:WhereClauseDef OID="WC.TS.TSVAL.00101">
        <RangeCheck Comparator="EQ" SoftHard="Soft" def:ItemOID="IT.TS.TSPARMCD">
          <CheckValue>SLENGTH</CheckValue>
        </RangeCheck>
      </def:WhereClauseDef>
      <def:WhereClauseDef OID="WC.TS.TSVAL.00102">
        <RangeCheck Comparator="EQ" SoftHard="Soft" def:ItemOID="IT.TS.TSPARMCD">
          <CheckValue>SNDCTVER</CheckValue>
        </RangeCheck>
      </def:WhereClauseDef>
      <def:WhereClauseDef OID="WC.TS.TSVAL.00103">
        <RangeCheck Comparator="EQ" SoftHard="Soft" def:ItemOID="IT.TS.TSPARMCD">
          <CheckValue>SNDIGVER</CheckValue>
        </RangeCheck>
      </def:WhereClauseDef>
      <def:WhereClauseDef OID="WC.TS.TSVAL.00104">
        <RangeCheck Comparator="EQ" SoftHard="Soft" def:ItemOID="IT.TS.TSPARMCD">
          <CheckValue>SPECIES</CheckValue>
        </RangeCheck>
      </def:WhereClauseDef>
      <def:WhereClauseDef OID="WC.TS.TSVAL.00105">
        <RangeCheck Comparator="EQ" SoftHard="Soft" def:ItemOID="IT.TS.TSPARMCD">
          <CheckValue>SPLANSUB</CheckValue>
        </RangeCheck>
      </def:WhereClauseDef>
      <def:WhereClauseDef OID="WC.TS.TSVAL.00106">
        <RangeCheck Comparator="EQ" SoftHard="Soft" def:ItemOID="IT.TS.TSPARMCD">
          <CheckValue>SPLRLOC</CheckValue>
        </RangeCheck>
      </def:WhereClauseDef>
      <def:WhereClauseDef OID="WC.TS.TSVAL.00107">
        <RangeCheck Comparator="EQ" SoftHard="Soft" def:ItemOID="IT.TS.TSPARMCD">
          <CheckValue>SPLRNAM</CheckValue>
        </RangeCheck>
      </def:WhereClauseDef>
      <def:WhereClauseDef OID="WC.TS.TSVAL.00108">
        <RangeCheck Comparator="EQ" SoftHard="Soft" def:ItemOID="IT.TS.TSPARMCD">
          <CheckValue>SPREFID</CheckValue>
        </RangeCheck>
      </def:WhereClauseDef>
      <def:WhereClauseDef OID="WC.TS.TSVAL.00109">
        <RangeCheck Comparator="EQ" SoftHard="Soft" def:ItemOID="IT.TS.TSPARMCD">
          <CheckValue>SRANDOM</CheckValue>
        </RangeCheck>
      </def:WhereClauseDef>
      <def:WhereClauseDef OID="WC.TS.TSVAL.00110">
        <RangeCheck Comparator="EQ" SoftHard="Soft" def:ItemOID="IT.TS.TSPARMCD">
          <CheckValue>SSPONSOR</CheckValue>
        </RangeCheck>
      </def:WhereClauseDef>
      <def:WhereClauseDef OID="WC.TS.TSVAL.00111">
        <RangeCheck Comparator="EQ" SoftHard="Soft" def:ItemOID="IT.TS.TSPARMCD">
          <CheckValue>SSTYP</CheckValue>
        </RangeCheck>
      </def:WhereClauseDef>
      <def:WhereClauseDef OID="WC.TS.TSVAL.00112">
        <RangeCheck Comparator="EQ" SoftHard="Soft" def:ItemOID="IT.TS.TSPARMCD">
          <CheckValue>STCAT</CheckValue>
        </RangeCheck>
      </def:WhereClauseDef>
      <def:WhereClauseDef OID="WC.TS.TSVAL.00113">
        <RangeCheck Comparator="EQ" SoftHard="Soft" def:ItemOID="IT.TS.TSPARMCD">
          <CheckValue>STDIR</CheckValue>
        </RangeCheck>
      </def:WhereClauseDef>
      <def:WhereClauseDef OID="WC.TS.TSVAL.00114">
        <RangeCheck Comparator="EQ" SoftHard="Soft" def:ItemOID="IT.TS.TSPARMCD">
          <CheckValue>STENDTC</CheckValue>
        </RangeCheck>
      </def:WhereClauseDef>
      <def:WhereClauseDef OID="WC.TS.TSVAL.00115">
        <RangeCheck Comparator="EQ" SoftHard="Soft" def:ItemOID="IT.TS.TSPARMCD">
          <CheckValue>STITLE</CheckValue>
        </RangeCheck>
      </def:WhereClauseDef>
      <def:WhereClauseDef OID="WC.TS.TSVAL.00116">
        <RangeCheck Comparator="EQ" SoftHard="Soft" def:ItemOID="IT.TS.TSPARMCD">
          <CheckValue>STMON</CheckValue>
        </RangeCheck>
      </def:WhereClauseDef>
      <def:WhereClauseDef OID="WC.TS.TSVAL.00117">
        <RangeCheck Comparator="EQ" SoftHard="Soft" def:ItemOID="IT.TS.TSPARMCD">
          <CheckValue>STRAIN</CheckValue>
        </RangeCheck>
      </def:WhereClauseDef>
      <def:WhereClauseDef OID="WC.TS.TSVAL.00118">
        <RangeCheck Comparator="EQ" SoftHard="Soft" def:ItemOID="IT.TS.TSPARMCD">
          <CheckValue>STSTDTC</CheckValue>
        </RangeCheck>
      </def:WhereClauseDef>
      <def:WhereClauseDef OID="WC.TS.TSVAL.00119">
        <RangeCheck Comparator="EQ" SoftHard="Soft" def:ItemOID="IT.TS.TSPARMCD">
          <CheckValue>TFCNTRY</CheckValue>
        </RangeCheck>
      </def:WhereClauseDef>
      <def:WhereClauseDef OID="WC.TS.TSVAL.00120">
        <RangeCheck Comparator="EQ" SoftHard="Soft" def:ItemOID="IT.TS.TSPARMCD">
          <CheckValue>TRMSAC</CheckValue>
        </RangeCheck>
      </def:WhereClauseDef>
      <def:WhereClauseDef OID="WC.TS.TSVAL.00121">
        <RangeCheck Comparator="EQ" SoftHard="Soft" def:ItemOID="IT.TS.TSPARMCD">
          <CheckValue>TRT</CheckValue>
        </RangeCheck>
      </def:WhereClauseDef>
      <def:WhereClauseDef OID="WC.TS.TSVAL.00122">
        <RangeCheck Comparator="EQ" SoftHard="Soft" def:ItemOID="IT.TS.TSPARMCD">
          <CheckValue>TRTCAS</CheckValue>
        </RangeCheck>
      </def:WhereClauseDef>
      <def:WhereClauseDef OID="WC.TS.TSVAL.00123">
        <RangeCheck Comparator="EQ" SoftHard="Soft" def:ItemOID="IT.TS.TSPARMCD">
          <CheckValue>TRTUNII</CheckValue>
        </RangeCheck>
      </def:WhereClauseDef>
      <def:WhereClauseDef OID="WC.TS.TSVAL.00124">
        <RangeCheck Comparator="EQ" SoftHard="Soft" def:ItemOID="IT.TS.TSPARMCD">
          <CheckValue>TRTV</CheckValue>
        </RangeCheck>
      </def:WhereClauseDef>
      <def:WhereClauseDef OID="WC.TS.TSVAL.00125">
        <RangeCheck Comparator="EQ" SoftHard="Soft" def:ItemOID="IT.TS.TSPARMCD">
          <CheckValue>TSTFLOC</CheckValue>
        </RangeCheck>
      </def:WhereClauseDef>
      <def:WhereClauseDef OID="WC.TS.TSVAL.00126">
        <RangeCheck Comparator="EQ" SoftHard="Soft" def:ItemOID="IT.TS.TSPARMCD">
          <CheckValue>TSTFNAM</CheckValue>
        </RangeCheck>
      </def:WhereClauseDef>
      <def:WhereClauseDef OID="WC.TS.TSVAL.00127">
        <RangeCheck Comparator="EQ" SoftHard="Soft" def:ItemOID="IT.TS.TSPARMCD">
          <CheckValue>WATER</CheckValue>
        </RangeCheck>
      </def:WhereClauseDef>
      <def:WhereClauseDef OID="WC.TS.TSVAL.00128">
        <RangeCheck Comparator="EQ" SoftHard="Soft" def:ItemOID="IT.TS.TSPARMCD">
          <CheckValue>WTRDLVRY</CheckValue>
        </RangeCheck>
      </def:WhereClauseDef>
      <def:WhereClauseDef OID="WC.TX.TXVAL.00129">
        <RangeCheck Comparator="EQ" SoftHard="Soft" def:ItemOID="IT.TX.TXPARMCD">
          <CheckValue>ARMCD</CheckValue>
        </RangeCheck>
      </def:WhereClauseDef>
      <def:WhereClauseDef OID="WC.TX.TXVAL.00130">
        <RangeCheck Comparator="EQ" SoftHard="Soft" def:ItemOID="IT.TX.TXPARMCD">
          <CheckValue>GRPLBL</CheckValue>
        </RangeCheck>
      </def:WhereClauseDef>
      <def:WhereClauseDef OID="WC.TX.TXVAL.00131">
        <RangeCheck Comparator="EQ" SoftHard="Soft" def:ItemOID="IT.TX.TXPARMCD">
          <CheckValue>PLANFSUB</CheckValue>
        </RangeCheck>
      </def:WhereClauseDef>
      <def:WhereClauseDef OID="WC.TX.TXVAL.00132">
        <RangeCheck Comparator="EQ" SoftHard="Soft" def:ItemOID="IT.TX.TXPARMCD">
          <CheckValue>PLANMSUB</CheckValue>
        </RangeCheck>
      </def:WhereClauseDef>
      <def:WhereClauseDef OID="WC.TX.TXVAL.00133">
        <RangeCheck Comparator="EQ" SoftHard="Soft" def:ItemOID="IT.TX.TXPARMCD">
          <CheckValue>SETLBL</CheckValue>
        </RangeCheck>
      </def:WhereClauseDef>
      <def:WhereClauseDef OID="WC.TX.TXVAL.00134">
        <RangeCheck Comparator="EQ" SoftHard="Soft" def:ItemOID="IT.TX.TXPARMCD">
          <CheckValue>SEXPOP</CheckValue>
        </RangeCheck>
      </def:WhereClauseDef>
      <def:WhereClauseDef OID="WC.TX.TXVAL.00135">
        <RangeCheck Comparator="EQ" SoftHard="Soft" def:ItemOID="IT.TX.TXPARMCD">
          <CheckValue>SPGRPCD</CheckValue>
        </RangeCheck>
      </def:WhereClauseDef>
      <def:WhereClauseDef OID="WC.TX.TXVAL.00136">
        <RangeCheck Comparator="EQ" SoftHard="Soft" def:ItemOID="IT.TX.TXPARMCD">
          <CheckValue>SPLANSUB</CheckValue>
        </RangeCheck>
      </def:WhereClauseDef>
      <def:WhereClauseDef OID="WC.TX.TXVAL.00137">
        <RangeCheck Comparator="EQ" SoftHard="Soft" def:ItemOID="IT.TX.TXPARMCD">
          <CheckValue>TCNTRL</CheckValue>
        </RangeCheck>
      </def:WhereClauseDef>
      <def:WhereClauseDef OID="WC.TX.TXVAL.00138">
        <RangeCheck Comparator="EQ" SoftHard="Soft" def:ItemOID="IT.TX.TXPARMCD">
          <CheckValue>TKDESC</CheckValue>
        </RangeCheck>
      </def:WhereClauseDef>
      <def:WhereClauseDef OID="WC.TX.TXVAL.00139">
        <RangeCheck Comparator="EQ" SoftHard="Soft" def:ItemOID="IT.TX.TXPARMCD">
          <CheckValue>TRTDOS</CheckValue>
        </RangeCheck>
      </def:WhereClauseDef>
      <def:WhereClauseDef OID="WC.TX.TXVAL.00140">
        <RangeCheck Comparator="EQ" SoftHard="Soft" def:ItemOID="IT.TX.TXPARMCD">
          <CheckValue>TRTDOSU</CheckValue>
        </RangeCheck>
      </def:WhereClauseDef>
      <ItemGroupDef OID="IG.TA" Name="TA" Repeating="No" IsReferenceData="Yes" SASDatasetName="TA" Domain="TA" Purpose="Tabulation" def:Structure="One record per planned Element per Arm" def:ArchiveLocationID="LF.TA" def:StandardOID="STD.1">
        <Description>
          <TranslatedText xml:lang="en">Trial Arms</TranslatedText>
        </Description>
        <ItemRef ItemOID="IT.TA.STUDYID" Mandatory="Yes" OrderNumber="1" KeySequence="1"/>
        <ItemRef ItemOID="IT.TA.DOMAIN" Mandatory="Yes" OrderNumber="2"/>
        <ItemRef ItemOID="IT.TA.ARMCD" Mandatory="Yes" OrderNumber="3" KeySequence="2"/>
        <ItemRef ItemOID="IT.TA.ARM" Mandatory="Yes" OrderNumber="4"/>
        <ItemRef ItemOID="IT.TA.TAETORD" Mandatory="Yes" OrderNumber="5" KeySequence="3"/>
        <ItemRef ItemOID="IT.TA.ETCD" Mandatory="Yes" OrderNumber="6"/>
        <ItemRef ItemOID="IT.TA.ELEMENT" Mandatory="No" OrderNumber="7"/>
        <ItemRef ItemOID="IT.TA.EPOCH" Mandatory="No" OrderNumber="8"/>
        <def:Class Name="TRIAL DESIGN"/>
        <def:leaf ID="LF.TA" xlink:href="ta.xpt">
          <def:title>ta.xpt</def:title>
        </def:leaf>
      </ItemGroupDef>
      <ItemGroupDef OID="IG.TE" Name="TE" Repeating="No" IsReferenceData="Yes" SASDatasetName="TE" Domain="TE" Purpose="Tabulation" def:Structure="One record per planned Element" def:ArchiveLocationID="LF.TE" def:StandardOID="STD.1">
        <Description>
          <TranslatedText xml:lang="en">Trial Elements</TranslatedText>
        </Description>
        <ItemRef ItemOID="IT.TE.STUDYID" Mandatory="Yes" OrderNumber="1" KeySequence="1"/>
        <ItemRef ItemOID="IT.TE.DOMAIN" Mandatory="Yes" OrderNumber="2"/>
        <ItemRef ItemOID="IT.TE.ETCD" Mandatory="Yes" OrderNumber="3" KeySequence="2"/>
        <ItemRef ItemOID="IT.TE.ELEMENT" Mandatory="Yes" OrderNumber="4"/>
        <ItemRef ItemOID="IT.TE.TESTRL" Mandatory="Yes" OrderNumber="5"/>
        <ItemRef ItemOID="IT.TE.TEENRL" Mandatory="No" OrderNumber="6"/>
        <def:Class Name="TRIAL DESIGN"/>
        <def:leaf ID="LF.TE" xlink:href="te.xpt">
          <def:title>te.xpt</def:title>
        </def:leaf>
      </ItemGroupDef>
      <ItemGroupDef OID="IG.TP" Name="TP" Repeating="No" IsReferenceData="Yes" SASDatasetName="TP" Domain="TP" Purpose="Tabulation" def:Structure="One record per planned Stage per Path" def:ArchiveLocationID="LF.TP" def:StandardOID="STD.1">
        <Description>
          <TranslatedText xml:lang="en">Trial Repro Paths</TranslatedText>
        </Description>
        <ItemRef ItemOID="IT.TP.STUDYID" Mandatory="Yes" OrderNumber="1" KeySequence="1"/>
        <ItemRef ItemOID="IT.TP.DOMAIN" Mandatory="Yes" OrderNumber="2"/>
        <ItemRef ItemOID="IT.TP.RPATHCD" Mandatory="Yes" OrderNumber="3" KeySequence="2"/>
        <ItemRef ItemOID="IT.TP.RPATH" Mandatory="Yes" OrderNumber="4"/>
        <ItemRef ItemOID="IT.TP.TPSTGORD" Mandatory="Yes" OrderNumber="5"/>
        <ItemRef ItemOID="IT.TP.RSTGCD" Mandatory="Yes" OrderNumber="6" KeySequence="3"/>
        <ItemRef ItemOID="IT.TP.RSTAGE" Mandatory="No" OrderNumber="7"/>
        <ItemRef ItemOID="IT.TP.RPHASE" Mandatory="Yes" OrderNumber="8"/>
        <ItemRef ItemOID="IT.TP.RPRFDY" Mandatory="Yes" OrderNumber="9"/>
        <def:Class Name="TRIAL DESIGN"/>
        <def:leaf ID="LF.TP" xlink:href="tp.xpt">
          <def:title>tp.xpt</def:title>
        </def:leaf>
      </ItemGroupDef>
      <ItemGroupDef OID="IG.TS" Name="TS" Repeating="No" IsReferenceData="Yes" SASDatasetName="TS" Domain="TS" Purpose="Tabulation" def:Structure="One record per Trial Summary parameter value" def:ArchiveLocationID="LF.TS" def:StandardOID="STD.1">
        <Description>
          <TranslatedText xml:lang="en">Trial Summary</TranslatedText>
        </Description>
        <ItemRef ItemOID="IT.TS.STUDYID" Mandatory="Yes" OrderNumber="1" KeySequence="1"/>
        <ItemRef ItemOID="IT.TS.DOMAIN" Mandatory="Yes" OrderNumber="2"/>
        <ItemRef ItemOID="IT.TS.TSSEQ" Mandatory="Yes" OrderNumber="3" KeySequence="3"/>
        <ItemRef ItemOID="IT.TS.TSGRPID" Mandatory="No" OrderNumber="4" def:HasNoData="Yes"/>
        <ItemRef ItemOID="IT.TS.TSPARMCD" Mandatory="Yes" OrderNumber="5" KeySequence="2"/>
        <ItemRef ItemOID="IT.TS.TSPARM" Mandatory="Yes" OrderNumber="6"/>
        <ItemRef ItemOID="IT.TS.TSVAL" Mandatory="Yes" OrderNumber="7"/>
        <ItemRef ItemOID="IT.TS.TSVAL1" Mandatory="Yes" OrderNumber="8"/>
        <def:Class Name="TRIAL DESIGN"/>
        <def:leaf ID="LF.TS" xlink:href="ts.xpt">
          <def:title>ts.xpt</def:title>
        </def:leaf>
      </ItemGroupDef>
      <ItemGroupDef OID="IG.TT" Name="TT" Repeating="No" IsReferenceData="Yes" SASDatasetName="TT" Domain="TT" Purpose="Tabulation" def:Structure="One record per planned Stage" def:ArchiveLocationID="LF.TT" def:StandardOID="STD.1">
        <Description>
          <TranslatedText xml:lang="en">Trial Repro Stages</TranslatedText>
        </Description>
        <ItemRef ItemOID="IT.TT.STUDYID" Mandatory="Yes" OrderNumber="1" KeySequence="1"/>
        <ItemRef ItemOID="IT.TT.DOMAIN" Mandatory="Yes" OrderNumber="2"/>
        <ItemRef ItemOID="IT.TT.RSTGCD" Mandatory="Yes" OrderNumber="3" KeySequence="2"/>
        <ItemRef ItemOID="IT.TT.RSTAGE" Mandatory="Yes" OrderNumber="4"/>
        <ItemRef ItemOID="IT.TT.TTSTRL" Mandatory="Yes" OrderNumber="5"/>
        <ItemRef ItemOID="IT.TT.TTENRL" Mandatory="No" OrderNumber="6"/>
        <def:Class Name="TRIAL DESIGN"/>
        <def:leaf ID="LF.TT" xlink:href="tt.xpt">
          <def:title>tt.xpt</def:title>
        </def:leaf>
      </ItemGroupDef>
      <ItemGroupDef OID="IG.TX" Name="TX" Repeating="No" IsReferenceData="Yes" SASDatasetName="TX" Domain="TX" Purpose="Tabulation" def:Structure="One record per Trial Set parameter per Trial Set" def:ArchiveLocationID="LF.TX" def:StandardOID="STD.1">
        <Description>
          <TranslatedText xml:lang="en">Trial Sets</TranslatedText>
        </Description>
        <ItemRef ItemOID="IT.TX.STUDYID" Mandatory="Yes" OrderNumber="1" KeySequence="1"/>
        <ItemRef ItemOID="IT.TX.DOMAIN" Mandatory="Yes" OrderNumber="2"/>
        <ItemRef ItemOID="IT.TX.SETCD" Mandatory="Yes" OrderNumber="3" KeySequence="2"/>
        <ItemRef ItemOID="IT.TX.SET" Mandatory="Yes" OrderNumber="4"/>
        <ItemRef ItemOID="IT.TX.TXSEQ" Mandatory="Yes" OrderNumber="5" KeySequence="4"/>
        <ItemRef ItemOID="IT.TX.TXPARMCD" Mandatory="Yes" OrderNumber="6" KeySequence="3"/>
        <ItemRef ItemOID="IT.TX.TXPARM" Mandatory="Yes" OrderNumber="7"/>
        <ItemRef ItemOID="IT.TX.TXVAL" Mandatory="Yes" OrderNumber="8"/>
        <def:Class Name="TRIAL DESIGN"/>
        <def:leaf ID="LF.TX" xlink:href="tx.xpt">
          <def:title>tx.xpt</def:title>
        </def:leaf>
      </ItemGroupDef>
      <ItemGroupDef OID="IG.CO" Name="CO" Repeating="No" IsReferenceData="No" SASDatasetName="CO" Domain="CO" Purpose="Tabulation" def:Structure="One record per comment" def:ArchiveLocationID="LF.CO" def:StandardOID="STD.1">
        <Description>
          <TranslatedText xml:lang="en">Comments</TranslatedText>
        </Description>
        <ItemRef ItemOID="IT.CO.STUDYID" Mandatory="Yes" OrderNumber="1" KeySequence="1"/>
        <ItemRef ItemOID="IT.CO.DOMAIN" Mandatory="Yes" OrderNumber="2"/>
        <ItemRef ItemOID="IT.CO.RDOMAIN" Mandatory="No" OrderNumber="3"/>
        <ItemRef ItemOID="IT.CO.USUBJID" Mandatory="No" OrderNumber="4" KeySequence="2" MethodOID="MT.CO.USUBJID"/>
        <ItemRef ItemOID="IT.CO.COSEQ" Mandatory="Yes" OrderNumber="5" KeySequence="3" MethodOID="MT.CO.COSEQ"/>
        <ItemRef ItemOID="IT.CO.IDVAR" Mandatory="No" OrderNumber="6"/>
        <ItemRef ItemOID="IT.CO.IDVARVAL" Mandatory="No" OrderNumber="7"/>
        <ItemRef ItemOID="IT.CO.COVAL" Mandatory="Yes" OrderNumber="8"/>
        <ItemRef ItemOID="IT.CO.RPHASE" Mandatory="No" OrderNumber="9"/>
        <ItemRef ItemOID="IT.CO.CODTC" Mandatory="No" OrderNumber="10"/>
        <def:Class Name="SPECIAL PURPOSE"/>
        <def:leaf ID="LF.CO" xlink:href="co.xpt">
          <def:title>co.xpt</def:title>
        </def:leaf>
      </ItemGroupDef>
      <ItemGroupDef OID="IG.DM" Name="DM" Repeating="No" IsReferenceData="No" SASDatasetName="DM" Domain="DM" Purpose="Tabulation" def:Structure="One record per subject" def:ArchiveLocationID="LF.DM" def:StandardOID="STD.1">
        <Description>
          <TranslatedText xml:lang="en">Demographics</TranslatedText>
        </Description>
        <ItemRef ItemOID="IT.DM.STUDYID" Mandatory="Yes" OrderNumber="1" KeySequence="1"/>
        <ItemRef ItemOID="IT.DM.DOMAIN" Mandatory="Yes" OrderNumber="2"/>
        <ItemRef ItemOID="IT.DM.USUBJID" Mandatory="Yes" OrderNumber="3" KeySequence="2" MethodOID="MT.DM.USUBJID"/>
        <ItemRef ItemOID="IT.DM.SUBJID" Mandatory="Yes" OrderNumber="4"/>
        <ItemRef ItemOID="IT.DM.RFSTDTC" Mandatory="Yes" OrderNumber="5"/>
        <ItemRef ItemOID="IT.DM.RFENDTC" Mandatory="No" OrderNumber="6"/>
        <ItemRef ItemOID="IT.DM.RFXSTDTC" Mandatory="No" OrderNumber="7"/>
        <ItemRef ItemOID="IT.DM.RFXENDTC" Mandatory="No" OrderNumber="8"/>
        <ItemRef ItemOID="IT.DM.BRTHDTC" Mandatory="No" OrderNumber="9"/>
        <ItemRef ItemOID="IT.DM.AGE" Mandatory="No" OrderNumber="10" MethodOID="MT.DM.AGE"/>
        <ItemRef ItemOID="IT.DM.AGEU" Mandatory="No" OrderNumber="11"/>
        <ItemRef ItemOID="IT.DM.SEX" Mandatory="Yes" OrderNumber="12"/>
        <ItemRef ItemOID="IT.DM.ARMCD" Mandatory="No" OrderNumber="13"/>
        <ItemRef ItemOID="IT.DM.ARM" Mandatory="No" OrderNumber="14"/>
        <ItemRef ItemOID="IT.DM.SETCD" Mandatory="Yes" OrderNumber="15"/>
        <ItemRef ItemOID="IT.DM.RPATHCD" Mandatory="No" OrderNumber="16"/>
        <def:Class Name="SPECIAL PURPOSE"/>
        <def:leaf ID="LF.DM" xlink:href="dm.xpt">
          <def:title>dm.xpt</def:title>
        </def:leaf>
      </ItemGroupDef>
      <ItemGroupDef OID="IG.SE" Name="SE" Repeating="Yes" IsReferenceData="No" SASDatasetName="SE" Domain="SE" Purpose="Tabulation" def:Structure="One record per element experienced per subject" def:ArchiveLocationID="LF.SE" def:StandardOID="STD.1">
        <Description>
          <TranslatedText xml:lang="en">Subject Elements</TranslatedText>
        </Description>
        <ItemRef ItemOID="IT.SE.STUDYID" Mandatory="Yes" OrderNumber="1" KeySequence="1"/>
        <ItemRef ItemOID="IT.SE.DOMAIN" Mandatory="Yes" OrderNumber="2"/>
        <ItemRef ItemOID="IT.SE.USUBJID" Mandatory="Yes" OrderNumber="3" KeySequence="2" MethodOID="MT.SE.USUBJID"/>
        <ItemRef ItemOID="IT.SE.SESEQ" Mandatory="Yes" OrderNumber="4" MethodOID="MT.SE.SESEQ"/>
        <ItemRef ItemOID="IT.SE.ETCD" Mandatory="Yes" OrderNumber="5" KeySequence="3"/>
        <ItemRef ItemOID="IT.SE.ELEMENT" Mandatory="No" OrderNumber="6"/>
        <ItemRef ItemOID="IT.SE.SESTDTC" Mandatory="Yes" OrderNumber="7" KeySequence="4"/>
        <ItemRef ItemOID="IT.SE.SEENDTC" Mandatory="No" OrderNumber="8"/>
        <def:Class Name="SPECIAL PURPOSE"/>
        <def:leaf ID="LF.SE" xlink:href="se.xpt">
          <def:title>se.xpt</def:title>
        </def:leaf>
      </ItemGroupDef>
      <ItemGroupDef OID="IG.SJ" Name="SJ" Repeating="No" IsReferenceData="No" SASDatasetName="SJ" Domain="SJ" Purpose="Tabulation" def:Structure="One record per actual Repro Stage per subject" def:ArchiveLocationID="LF.SJ" def:StandardOID="STD.1">
        <Description>
          <TranslatedText xml:lang="en">Subject Repro Stages</TranslatedText>
        </Description>
        <ItemRef ItemOID="IT.SJ.STUDYID" Mandatory="Yes" OrderNumber="1" KeySequence="1"/>
        <ItemRef ItemOID="IT.SJ.DOMAIN" Mandatory="Yes" OrderNumber="2"/>
        <ItemRef ItemOID="IT.SJ.USUBJID" Mandatory="Yes" OrderNumber="3" KeySequence="2" MethodOID="MT.SJ.USUBJID"/>
        <ItemRef ItemOID="IT.SJ.SJSEQ" Mandatory="Yes" OrderNumber="4" MethodOID="MT.SJ.SJSEQ"/>
        <ItemRef ItemOID="IT.SJ.RSTGCD" Mandatory="Yes" OrderNumber="5" KeySequence="3"/>
        <ItemRef ItemOID="IT.SJ.RSTAGE" Mandatory="No" OrderNumber="6"/>
        <ItemRef ItemOID="IT.SJ.SJSTDTC" Mandatory="Yes" OrderNumber="7" KeySequence="4"/>
        <ItemRef ItemOID="IT.SJ.SJENDTC" Mandatory="No" OrderNumber="8"/>
        <ItemRef ItemOID="IT.SJ.RPHASE" Mandatory="Yes" OrderNumber="9"/>
        <def:Class Name="SPECIAL PURPOSE"/>
        <def:leaf ID="LF.SJ" xlink:href="sj.xpt">
          <def:title>sj.xpt</def:title>
        </def:leaf>
      </ItemGroupDef>
      <ItemGroupDef OID="IG.EX" Name="EX" Repeating="Yes" IsReferenceData="No" SASDatasetName="EX" Domain="EX" Purpose="Tabulation" def:Structure="One record per constant dosing interval per treatment per subject or pool" def:ArchiveLocationID="LF.EX" def:StandardOID="STD.1">
        <Description>
          <TranslatedText xml:lang="en">Exposure</TranslatedText>
        </Description>
        <ItemRef ItemOID="IT.EX.STUDYID" Mandatory="Yes" OrderNumber="1" KeySequence="1"/>
        <ItemRef ItemOID="IT.EX.DOMAIN" Mandatory="Yes" OrderNumber="2"/>
        <ItemRef ItemOID="IT.EX.USUBJID" Mandatory="No" OrderNumber="3" KeySequence="2" MethodOID="MT.EX.USUBJID"/>
        <ItemRef ItemOID="IT.EX.EXSEQ" Mandatory="Yes" OrderNumber="4" MethodOID="MT.EX.EXSEQ"/>
        <ItemRef ItemOID="IT.EX.EXTRT" Mandatory="Yes" OrderNumber="5" KeySequence="3"/>
        <ItemRef ItemOID="IT.EX.EXDOSE" Mandatory="No" OrderNumber="6" MethodOID="MT.EX.EXDOSE"/>
        <ItemRef ItemOID="IT.EX.EXDOSU" Mandatory="No" OrderNumber="7"/>
        <ItemRef ItemOID="IT.EX.EXDOSFRM" Mandatory="No" OrderNumber="8"/>
        <ItemRef ItemOID="IT.EX.EXDOSFRQ" Mandatory="Yes" OrderNumber="9"/>
        <ItemRef ItemOID="IT.EX.EXROUTE" Mandatory="Yes" OrderNumber="10" KeySequence="4"/>
        <ItemRef ItemOID="IT.EX.EXLOT" Mandatory="No" OrderNumber="11"/>
        <ItemRef ItemOID="IT.EX.EXTRTV" Mandatory="No" OrderNumber="12" KeySequence="5"/>
        <ItemRef ItemOID="IT.EX.EXVAMT" Mandatory="No" OrderNumber="13"/>
        <ItemRef ItemOID="IT.EX.EXVAMTU" Mandatory="No" OrderNumber="14"/>
        <ItemRef ItemOID="IT.EX.RPHASE" Mandatory="No" OrderNumber="15"/>
        <ItemRef ItemOID="IT.EX.RPPLSTDY" Mandatory="No" OrderNumber="16" MethodOID="MT.EX.RPPLSTDY"/>
        <ItemRef ItemOID="IT.EX.EXSTDTC" Mandatory="No" OrderNumber="17" KeySequence="6"/>
        <ItemRef ItemOID="IT.EX.EXRPSTDY" Mandatory="No" OrderNumber="18" MethodOID="MT.EX.EXRPSTDY"/>
        <def:Class Name="INTERVENTIONS"/>
        <def:leaf ID="LF.EX" xlink:href="ex.xpt">
          <def:title>ex.xpt</def:title>
        </def:leaf>
      </ItemGroupDef>
      <ItemGroupDef OID="IG.DS" Name="DS" Repeating="No" IsReferenceData="No" SASDatasetName="DS" Domain="DS" Purpose="Tabulation" def:Structure="One record per subject" def:ArchiveLocationID="LF.DS" def:StandardOID="STD.1">
        <Description>
          <TranslatedText xml:lang="en">Disposition</TranslatedText>
        </Description>
        <ItemRef ItemOID="IT.DS.STUDYID" Mandatory="Yes" OrderNumber="1" KeySequence="1"/>
        <ItemRef ItemOID="IT.DS.DOMAIN" Mandatory="Yes" OrderNumber="2"/>
        <ItemRef ItemOID="IT.DS.USUBJID" Mandatory="Yes" OrderNumber="3" KeySequence="2" MethodOID="MT.DS.USUBJID"/>
        <ItemRef ItemOID="IT.DS.DSSEQ" Mandatory="Yes" OrderNumber="4" MethodOID="MT.DS.DSSEQ"/>
        <ItemRef ItemOID="IT.DS.DSTERM" Mandatory="Yes" OrderNumber="5"/>
        <ItemRef ItemOID="IT.DS.DSDECOD" Mandatory="Yes" OrderNumber="6"/>
        <ItemRef ItemOID="IT.DS.DSUSCHFL" Mandatory="No" OrderNumber="7"/>
        <ItemRef ItemOID="IT.DS.RPHASE" Mandatory="No" OrderNumber="8"/>
        <ItemRef ItemOID="IT.DS.RPPLSTDY" Mandatory="No" OrderNumber="9" MethodOID="MT.DS.RPPLSTDY"/>
        <ItemRef ItemOID="IT.DS.DSSTDTC" Mandatory="Yes" OrderNumber="10"/>
        <ItemRef ItemOID="IT.DS.DSRPSTDY" Mandatory="No" OrderNumber="11" MethodOID="MT.DS.DSRPSTDY"/>
        <def:Class Name="EVENTS"/>
        <def:leaf ID="LF.DS" xlink:href="ds.xpt">
          <def:title>ds.xpt</def:title>
        </def:leaf>
      </ItemGroupDef>
      <ItemGroupDef OID="IG.BW" Name="BW" Repeating="Yes" IsReferenceData="No" SASDatasetName="BW" Domain="BW" Purpose="Tabulation" def:Structure="One record per test per observation time per subject" def:ArchiveLocationID="LF.BW" def:StandardOID="STD.1">
        <Description>
          <TranslatedText xml:lang="en">Body Weight</TranslatedText>
        </Description>
        <ItemRef ItemOID="IT.BW.STUDYID" Mandatory="Yes" OrderNumber="1" KeySequence="1"/>
        <ItemRef ItemOID="IT.BW.DOMAIN" Mandatory="Yes" OrderNumber="2"/>
        <ItemRef ItemOID="IT.BW.USUBJID" Mandatory="Yes" OrderNumber="3" KeySequence="2" MethodOID="MT.BW.USUBJID"/>
        <ItemRef ItemOID="IT.BW.BWSEQ" Mandatory="Yes" OrderNumber="4" MethodOID="MT.BW.BWSEQ"/>
        <ItemRef ItemOID="IT.BW.BWTESTCD" Mandatory="Yes" OrderNumber="5" KeySequence="3"/>
        <ItemRef ItemOID="IT.BW.BWTEST" Mandatory="Yes" OrderNumber="6"/>
        <ItemRef ItemOID="IT.BW.BWORRES" Mandatory="No" OrderNumber="7"/>
        <ItemRef ItemOID="IT.BW.BWORRESU" Mandatory="No" OrderNumber="8"/>
        <ItemRef ItemOID="IT.BW.BWSTRESC" Mandatory="No" OrderNumber="9" MethodOID="MT.BW.BWSTRESC"/>
        <ItemRef ItemOID="IT.BW.BWSTRESN" Mandatory="No" OrderNumber="10" MethodOID="MT.BW.BWSTRESN"/>
        <ItemRef ItemOID="IT.BW.BWSTRESU" Mandatory="No" OrderNumber="11" MethodOID="MT.BW.BWSTRESU"/>
        <ItemRef ItemOID="IT.BW.RPHASE" Mandatory="No" OrderNumber="12"/>
        <ItemRef ItemOID="IT.BW.RPPLDY" Mandatory="No" OrderNumber="13" MethodOID="MT.BW.RPPLDY"/>
        <ItemRef ItemOID="IT.BW.BWDTC" Mandatory="No" OrderNumber="14" KeySequence="4"/>
        <ItemRef ItemOID="IT.BW.BWRPDY" Mandatory="No" OrderNumber="15" MethodOID="MT.BW.BWRPDY"/>
        <def:Class Name="FINDINGS"/>
        <def:leaf ID="LF.BW" xlink:href="bw.xpt">
          <def:title>bw.xpt</def:title>
        </def:leaf>
      </ItemGroupDef>
      <ItemGroupDef OID="IG.CL" Name="CL" Repeating="Yes" IsReferenceData="No" SASDatasetName="CL" Domain="CL" Purpose="Tabulation" def:Structure="One record per finding per observation time per subject or pool" def:ArchiveLocationID="LF.CL" def:StandardOID="STD.1">
        <Description>
          <TranslatedText xml:lang="en">Clinical Observations</TranslatedText>
        </Description>
        <ItemRef ItemOID="IT.CL.STUDYID" Mandatory="Yes" OrderNumber="1" KeySequence="1"/>
        <ItemRef ItemOID="IT.CL.DOMAIN" Mandatory="Yes" OrderNumber="2"/>
        <ItemRef ItemOID="IT.CL.USUBJID" Mandatory="No" OrderNumber="3" KeySequence="2" MethodOID="MT.CL.USUBJID"/>
        <ItemRef ItemOID="IT.CL.CLSEQ" Mandatory="Yes" OrderNumber="4" MethodOID="MT.CL.CLSEQ"/>
        <ItemRef ItemOID="IT.CL.CLTESTCD" Mandatory="Yes" OrderNumber="5" KeySequence="3"/>
        <ItemRef ItemOID="IT.CL.CLTEST" Mandatory="Yes" OrderNumber="6"/>
        <ItemRef ItemOID="IT.CL.CLCAT" Mandatory="Yes" OrderNumber="7" KeySequence="4"/>
        <ItemRef ItemOID="IT.CL.CLSCAT" Mandatory="No" OrderNumber="8"/>
        <ItemRef ItemOID="IT.CL.CLORRES" Mandatory="No" OrderNumber="9" KeySequence="5" MethodOID="MT.CL.CLORRES"/>
        <ItemRef ItemOID="IT.CL.CLSTRESC" Mandatory="No" OrderNumber="10"/>
        <ItemRef ItemOID="IT.CL.CLLOC" Mandatory="No" OrderNumber="11"/>
        <ItemRef ItemOID="IT.CL.RPHASE" Mandatory="No" OrderNumber="12"/>
        <ItemRef ItemOID="IT.CL.RPPLDY" Mandatory="No" OrderNumber="13" MethodOID="MT.CL.RPPLDY"/>
        <ItemRef ItemOID="IT.CL.CLDTC" Mandatory="No" OrderNumber="14" KeySequence="6"/>
        <ItemRef ItemOID="IT.CL.CLRPDY" Mandatory="No" OrderNumber="15" MethodOID="MT.CL.CLRPDY" def:HasNoData="Yes"/>
        <ItemRef ItemOID="IT.CL.CLTPT" Mandatory="No" OrderNumber="16"/>
        <ItemRef ItemOID="IT.CL.CLTPTNUM" Mandatory="No" OrderNumber="17" MethodOID="MT.CL.CLTPTNUM"/>
        <ItemRef ItemOID="IT.CL.CLELTM" Mandatory="No" OrderNumber="18"/>
        <ItemRef ItemOID="IT.CL.CLTPTREF" Mandatory="No" OrderNumber="19"/>
        <ItemRef ItemOID="IT.CL.CLRFTDTC" Mandatory="No" OrderNumber="20"/>
        <def:Class Name="FINDINGS"/>
        <def:leaf ID="LF.CL" xlink:href="cl.xpt">
          <def:title>cl.xpt</def:title>
        </def:leaf>
      </ItemGroupDef>
      <ItemGroupDef OID="IG.DD" Name="DD" Repeating="No" IsReferenceData="No" SASDatasetName="DD" Domain="DD" Purpose="Tabulation" def:Structure="One record per diagnosis per subject" def:ArchiveLocationID="LF.DD" def:StandardOID="STD.1">
        <Description>
          <TranslatedText xml:lang="en">Death Diagnosis and Details</TranslatedText>
        </Description>
        <ItemRef ItemOID="IT.DD.STUDYID" Mandatory="Yes" OrderNumber="1" KeySequence="1"/>
        <ItemRef ItemOID="IT.DD.DOMAIN" Mandatory="Yes" OrderNumber="2"/>
        <ItemRef ItemOID="IT.DD.USUBJID" Mandatory="Yes" OrderNumber="3" KeySequence="2" MethodOID="MT.DD.USUBJID"/>
        <ItemRef ItemOID="IT.DD.DDSEQ" Mandatory="Yes" OrderNumber="4" MethodOID="MT.DD.DDSEQ"/>
        <ItemRef ItemOID="IT.DD.DDTESTCD" Mandatory="Yes" OrderNumber="5" KeySequence="3"/>
        <ItemRef ItemOID="IT.DD.DDTEST" Mandatory="Yes" OrderNumber="6"/>
        <ItemRef ItemOID="IT.DD.DDORRES" Mandatory="Yes" OrderNumber="7" KeySequence="4"/>
        <ItemRef ItemOID="IT.DD.DDSTRESC" Mandatory="No" OrderNumber="8" MethodOID="MT.DD.DDSTRESC"/>
        <ItemRef ItemOID="IT.DD.RPHASE" Mandatory="No" OrderNumber="9"/>
        <ItemRef ItemOID="IT.DD.DDDTC" Mandatory="No" OrderNumber="10"/>
        <ItemRef ItemOID="IT.DD.DDRPDY" Mandatory="No" OrderNumber="11" MethodOID="MT.DD.DDRPDY"/>
        <def:Class Name="FINDINGS"/>
        <def:leaf ID="LF.DD" xlink:href="dd.xpt">
          <def:title>dd.xpt</def:title>
        </def:leaf>
      </ItemGroupDef>
      <ItemGroupDef OID="IG.DP" Name="DP" Repeating="Yes" IsReferenceData="No" SASDatasetName="DP" Domain="DP" Purpose="Tabulation" def:Structure="One record per test per observation time per subject" def:ArchiveLocationID="LF.DP" def:StandardOID="STD.1">
        <Description>
          <TranslatedText xml:lang="en">Developmental Milestone Test Results</TranslatedText>
        </Description>
        <ItemRef ItemOID="IT.DP.STUDYID" Mandatory="Yes" OrderNumber="1" KeySequence="1"/>
        <ItemRef ItemOID="IT.DP.DOMAIN" Mandatory="Yes" OrderNumber="2"/>
        <ItemRef ItemOID="IT.DP.USUBJID" Mandatory="Yes" OrderNumber="3" KeySequence="2" MethodOID="MT.DP.USUBJID"/>
        <ItemRef ItemOID="IT.DP.DPSEQ" Mandatory="Yes" OrderNumber="4" MethodOID="MT.DP.DPSEQ"/>
        <ItemRef ItemOID="IT.DP.DPTESTCD" Mandatory="Yes" OrderNumber="5" KeySequence="3"/>
        <ItemRef ItemOID="IT.DP.DPTEST" Mandatory="Yes" OrderNumber="6"/>
        <ItemRef ItemOID="IT.DP.DPORRES" Mandatory="Yes" OrderNumber="7" KeySequence="4"/>
        <ItemRef ItemOID="IT.DP.DPSTRESC" Mandatory="No" OrderNumber="8" MethodOID="MT.DP.DPSTRESC"/>
        <ItemRef ItemOID="IT.DP.DPSTAT" Mandatory="No" OrderNumber="9"/>
        <ItemRef ItemOID="IT.DP.DPREASND" Mandatory="No" OrderNumber="10"/>
        <ItemRef ItemOID="IT.DP.DPEXCLFL" Mandatory="No" OrderNumber="11"/>
        <ItemRef ItemOID="IT.DP.DPREASEX" Mandatory="No" OrderNumber="12"/>
        <ItemRef ItemOID="IT.DP.RPHASE" Mandatory="No" OrderNumber="13"/>
        <ItemRef ItemOID="IT.DP.RPPLDY" Mandatory="No" OrderNumber="14" MethodOID="MT.DP.RPPLDY"/>
        <ItemRef ItemOID="IT.DP.DPDTC" Mandatory="No" OrderNumber="15" KeySequence="5"/>
        <ItemRef ItemOID="IT.DP.DPRPDY" Mandatory="No" OrderNumber="16" MethodOID="MT.DP.DPRPDY"/>
        <def:Class Name="FINDINGS"/>
        <def:leaf ID="LF.DP" xlink:href="dp.xpt">
          <def:title>dp.xpt</def:title>
        </def:leaf>
      </ItemGroupDef>
      <ItemGroupDef OID="IG.FW" Name="FW" Repeating="Yes" IsReferenceData="No" SASDatasetName="FW" Domain="FW" Purpose="Tabulation" def:Structure="One record per test per interval per subject or pool" def:ArchiveLocationID="LF.FW" def:StandardOID="STD.1">
        <Description>
          <TranslatedText xml:lang="en">Food and Water Consumption</TranslatedText>
        </Description>
        <ItemRef ItemOID="IT.FW.STUDYID" Mandatory="Yes" OrderNumber="1" KeySequence="1"/>
        <ItemRef ItemOID="IT.FW.DOMAIN" Mandatory="Yes" OrderNumber="2"/>
        <ItemRef ItemOID="IT.FW.USUBJID" Mandatory="No" OrderNumber="3" KeySequence="2" MethodOID="MT.FW.USUBJID" def:HasNoData="Yes"/>
        <ItemRef ItemOID="IT.FW.POOLID" Mandatory="No" OrderNumber="4"/>
        <ItemRef ItemOID="IT.FW.FWSEQ" Mandatory="Yes" OrderNumber="5" MethodOID="MT.FW.FWSEQ"/>
        <ItemRef ItemOID="IT.FW.FWTESTCD" Mandatory="Yes" OrderNumber="6" KeySequence="3"/>
        <ItemRef ItemOID="IT.FW.FWTEST" Mandatory="Yes" OrderNumber="7"/>
        <ItemRef ItemOID="IT.FW.FWORRES" Mandatory="No" OrderNumber="8"/>
        <ItemRef ItemOID="IT.FW.FWORRESU" Mandatory="No" OrderNumber="9"/>
        <ItemRef ItemOID="IT.FW.FWSTRESC" Mandatory="No" OrderNumber="10"/>
        <ItemRef ItemOID="IT.FW.FWSTRESN" Mandatory="No" OrderNumber="11" MethodOID="MT.FW.FWSTRESN"/>
        <ItemRef ItemOID="IT.FW.FWSTRESU" Mandatory="No" OrderNumber="12"/>
        <ItemRef ItemOID="IT.FW.RPHASE" Mandatory="No" OrderNumber="13"/>
        <ItemRef ItemOID="IT.FW.RPPLDY" Mandatory="No" OrderNumber="14" MethodOID="MT.FW.RPPLDY"/>
        <ItemRef ItemOID="IT.FW.RPPLENDY" Mandatory="No" OrderNumber="15" MethodOID="MT.FW.RPPLENDY"/>
        <ItemRef ItemOID="IT.FW.FWDTC" Mandatory="No" OrderNumber="16" KeySequence="4"/>
        <ItemRef ItemOID="IT.FW.FWENDTC" Mandatory="No" OrderNumber="17" KeySequence="5"/>
        <ItemRef ItemOID="IT.FW.FWRPDY" Mandatory="No" OrderNumber="18" MethodOID="MT.FW.FWRPDY"/>
        <ItemRef ItemOID="IT.FW.FWRPENDY" Mandatory="No" OrderNumber="19" MethodOID="MT.FW.FWRPENDY"/>
        <def:Class Name="FINDINGS"/>
        <def:leaf ID="LF.FW" xlink:href="fw.xpt">
          <def:title>fw.xpt</def:title>
        </def:leaf>
      </ItemGroupDef>
      <ItemGroupDef OID="IG.LB" Name="LB" Repeating="Yes" IsReferenceData="No" SASDatasetName="LB" Domain="LB" Purpose="Tabulation" def:Structure="One record per test per specimen per observation time per subject or pool" def:ArchiveLocationID="LF.LB" def:StandardOID="STD.1">
        <Description>
          <TranslatedText xml:lang="en">Laboratory Test Results</TranslatedText>
        </Description>
        <ItemRef ItemOID="IT.LB.STUDYID" Mandatory="Yes" OrderNumber="1" KeySequence="1"/>
        <ItemRef ItemOID="IT.LB.DOMAIN" Mandatory="Yes" OrderNumber="2"/>
        <ItemRef ItemOID="IT.LB.USUBJID" Mandatory="No" OrderNumber="3" KeySequence="2" MethodOID="MT.LB.USUBJID"/>
        <ItemRef ItemOID="IT.LB.LBSEQ" Mandatory="Yes" OrderNumber="4" MethodOID="MT.LB.LBSEQ"/>
        <ItemRef ItemOID="IT.LB.LBTESTCD" Mandatory="Yes" OrderNumber="5" KeySequence="3"/>
        <ItemRef ItemOID="IT.LB.LBTEST" Mandatory="Yes" OrderNumber="6"/>
        <ItemRef ItemOID="IT.LB.LBCAT" Mandatory="No" OrderNumber="7"/>
        <ItemRef ItemOID="IT.LB.LBSCAT" Mandatory="No" OrderNumber="8"/>
        <ItemRef ItemOID="IT.LB.LBORRES" Mandatory="No" OrderNumber="9"/>
        <ItemRef ItemOID="IT.LB.LBORRESU" Mandatory="No" OrderNumber="10"/>
        <ItemRef ItemOID="IT.LB.LBSTRESC" Mandatory="No" OrderNumber="11" MethodOID="MT.LB.LBSTRESC"/>
        <ItemRef ItemOID="IT.LB.LBSTRESN" Mandatory="No" OrderNumber="12" MethodOID="MT.LB.LBSTRESN"/>
        <ItemRef ItemOID="IT.LB.LBSTRESU" Mandatory="No" OrderNumber="13" MethodOID="MT.LB.LBSTRESU"/>
        <ItemRef ItemOID="IT.LB.LBSTAT" Mandatory="No" OrderNumber="14"/>
        <ItemRef ItemOID="IT.LB.LBREASND" Mandatory="No" OrderNumber="15"/>
        <ItemRef ItemOID="IT.LB.LBSPEC" Mandatory="No" OrderNumber="16" KeySequence="4"/>
        <ItemRef ItemOID="IT.LB.LBMETHOD" Mandatory="No" OrderNumber="17" KeySequence="5"/>
        <ItemRef ItemOID="IT.LB.LBBLFL" Mandatory="No" OrderNumber="18" MethodOID="MT.LB.LBBLFL" def:HasNoData="Yes"/>
        <ItemRef ItemOID="IT.LB.LBDRVFL" Mandatory="No" OrderNumber="19"/>
        <ItemRef ItemOID="IT.LB.LBUSCHFL" Mandatory="No" OrderNumber="20" def:HasNoData="Yes"/>
        <ItemRef ItemOID="IT.LB.RPHASE" Mandatory="No" OrderNumber="21"/>
        <ItemRef ItemOID="IT.LB.RPPLDY" Mandatory="No" OrderNumber="22" MethodOID="MT.LB.RPPLDY"/>
        <ItemRef ItemOID="IT.LB.LBDTC" Mandatory="No" OrderNumber="23" KeySequence="6"/>
        <ItemRef ItemOID="IT.LB.LBRPDY" Mandatory="No" OrderNumber="24" MethodOID="MT.LB.LBRPDY"/>
        <def:Class Name="FINDINGS"/>
        <def:leaf ID="LF.LB" xlink:href="lb.xpt">
          <def:title>lb.xpt</def:title>
        </def:leaf>
      </ItemGroupDef>
      <ItemGroupDef OID="IG.OM" Name="OM" Repeating="Yes" IsReferenceData="No" SASDatasetName="OM" Domain="OM" Purpose="Tabulation" def:Structure="One record per test per specimen per subject" def:ArchiveLocationID="LF.OM" def:StandardOID="STD.1">
        <Description>
          <TranslatedText xml:lang="en">Organ Measurements</TranslatedText>
        </Description>
        <ItemRef ItemOID="IT.OM.STUDYID" Mandatory="Yes" OrderNumber="1" KeySequence="1"/>
        <ItemRef ItemOID="IT.OM.DOMAIN" Mandatory="Yes" OrderNumber="2"/>
        <ItemRef ItemOID="IT.OM.USUBJID" Mandatory="Yes" OrderNumber="3" KeySequence="2" MethodOID="MT.OM.USUBJID"/>
        <ItemRef ItemOID="IT.OM.OMSEQ" Mandatory="Yes" OrderNumber="4" MethodOID="MT.OM.OMSEQ"/>
        <ItemRef ItemOID="IT.OM.OMTESTCD" Mandatory="Yes" OrderNumber="5" KeySequence="3"/>
        <ItemRef ItemOID="IT.OM.OMTEST" Mandatory="Yes" OrderNumber="6"/>
        <ItemRef ItemOID="IT.OM.OMORRES" Mandatory="No" OrderNumber="7"/>
        <ItemRef ItemOID="IT.OM.OMORRESU" Mandatory="No" OrderNumber="8"/>
        <ItemRef ItemOID="IT.OM.OMSTRESC" Mandatory="No" OrderNumber="9" MethodOID="MT.OM.OMSTRESC"/>
        <ItemRef ItemOID="IT.OM.OMSTRESN" Mandatory="No" OrderNumber="10" MethodOID="MT.OM.OMSTRESN"/>
        <ItemRef ItemOID="IT.OM.OMSTRESU" Mandatory="No" OrderNumber="11" MethodOID="MT.OM.OMSTRESU"/>
        <ItemRef ItemOID="IT.OM.OMSPEC" Mandatory="Yes" OrderNumber="12" KeySequence="4" MethodOID="MT.OM.OMSPEC"/>
        <ItemRef ItemOID="IT.OM.RPHASE" Mandatory="No" OrderNumber="13"/>
        <ItemRef ItemOID="IT.OM.RPPLDY" Mandatory="No" OrderNumber="14" MethodOID="MT.OM.RPPLDY"/>
        <ItemRef ItemOID="IT.OM.OMDTC" Mandatory="No" OrderNumber="15"/>
        <ItemRef ItemOID="IT.OM.OMRPDY" Mandatory="No" OrderNumber="16" MethodOID="MT.OM.OMRPDY"/>
        <def:Class Name="FINDINGS"/>
        <def:leaf ID="LF.OM" xlink:href="om.xpt">
          <def:title>om.xpt</def:title>
        </def:leaf>
      </ItemGroupDef>
      <ItemGroupDef OID="IG.SC" Name="SC" Repeating="No" IsReferenceData="No" SASDatasetName="SC" Domain="SC" Purpose="Tabulation" def:Structure="One record per characteristic per subject" def:ArchiveLocationID="LF.SC" def:StandardOID="STD.1">
        <Description>
          <TranslatedText xml:lang="en">Subject Characteristics</TranslatedText>
        </Description>
        <ItemRef ItemOID="IT.SC.STUDYID" Mandatory="Yes" OrderNumber="1" KeySequence="1"/>
        <ItemRef ItemOID="IT.SC.DOMAIN" Mandatory="Yes" OrderNumber="2"/>
        <ItemRef ItemOID="IT.SC.USUBJID" Mandatory="Yes" OrderNumber="3" KeySequence="2" MethodOID="MT.SC.USUBJID"/>
        <ItemRef ItemOID="IT.SC.SCSEQ" Mandatory="Yes" OrderNumber="4" MethodOID="MT.SC.SCSEQ"/>
        <ItemRef ItemOID="IT.SC.SCTESTCD" Mandatory="Yes" OrderNumber="5" KeySequence="3"/>
        <ItemRef ItemOID="IT.SC.SCTEST" Mandatory="Yes" OrderNumber="6"/>
        <ItemRef ItemOID="IT.SC.SCORRES" Mandatory="No" OrderNumber="7"/>
        <ItemRef ItemOID="IT.SC.SCSTRESC" Mandatory="No" OrderNumber="8" MethodOID="MT.SC.SCSTRESC"/>
        <def:Class Name="FINDINGS"/>
        <def:leaf ID="LF.SC" xlink:href="sc.xpt">
          <def:title>sc.xpt</def:title>
        </def:leaf>
      </ItemGroupDef>
      <ItemGroupDef OID="IG.POOLDEF" Name="POOLDEF" Repeating="Yes" IsReferenceData="No" SASDatasetName="POOLDEF" Domain="POOLDEF" Purpose="Tabulation" def:Structure="One record per subject per pool" def:ArchiveLocationID="LF.POOLDEF" def:StandardOID="STD.1">
        <Description>
          <TranslatedText xml:lang="en">Pool Definition</TranslatedText>
        </Description>
        <ItemRef ItemOID="IT.POOLDEF.STUDYID" Mandatory="Yes" OrderNumber="1" KeySequence="1"/>
        <ItemRef ItemOID="IT.POOLDEF.POOLID" Mandatory="Yes" OrderNumber="2" KeySequence="3"/>
        <ItemRef ItemOID="IT.POOLDEF.USUBJID" Mandatory="Yes" OrderNumber="3" KeySequence="2" MethodOID="MT.POOLDEF.USUBJID"/>
        <def:Class Name="RELATIONSHIP"/>
        <def:leaf ID="LF.POOLDEF" xlink:href="pooldef.xpt">
          <def:title>pooldef.xpt</def:title>
        </def:leaf>
      </ItemGroupDef>
      <ItemGroupDef OID="IG.SUPPCL" Name="SUPPCL" Repeating="Yes" IsReferenceData="No" SASDatasetName="SUPPCL" Domain="SUPPCL" Purpose="Tabulation" def:Structure="One record per supplemental qualifier value per original domain record" def:ArchiveLocationID="LF.SUPPCL" def:StandardOID="STD.1">
        <Description>
          <TranslatedText xml:lang="en">Supplemental Qualifiers for CL</TranslatedText>
        </Description>
        <ItemRef ItemOID="IT.SUPPCL.STUDYID" Mandatory="Yes" OrderNumber="1" KeySequence="1"/>
        <ItemRef ItemOID="IT.SUPPCL.RDOMAIN" Mandatory="Yes" OrderNumber="2" KeySequence="2"/>
        <ItemRef ItemOID="IT.SUPPCL.USUBJID" Mandatory="No" OrderNumber="3" KeySequence="3" MethodOID="MT.SUPPCL.USUBJID"/>
        <ItemRef ItemOID="IT.SUPPCL.IDVAR" Mandatory="No" OrderNumber="4" KeySequence="4"/>
        <ItemRef ItemOID="IT.SUPPCL.IDVARVAL" Mandatory="No" OrderNumber="5" KeySequence="5"/>
        <ItemRef ItemOID="IT.SUPPCL.QNAM" Mandatory="Yes" OrderNumber="6" KeySequence="6"/>
        <ItemRef ItemOID="IT.SUPPCL.QLABEL" Mandatory="Yes" OrderNumber="7"/>
        <ItemRef ItemOID="IT.SUPPCL.QVAL" Mandatory="Yes" OrderNumber="8"/>
        <ItemRef ItemOID="IT.SUPPCL.QORIG" Mandatory="No" OrderNumber="9"/>
        <def:Class Name="RELATIONSHIP"/>
        <def:leaf ID="LF.SUPPCL" xlink:href="suppcl.xpt">
          <def:title>suppcl.xpt</def:title>
        </def:leaf>
      </ItemGroupDef>
      <ItemDef OID="IT.BW.BWDTC" Name="BWDTC" DataType="datetime" SASFieldName="BWDTC">
        <Description>
          <TranslatedText xml:lang="en">Date/Time Animal Weighed</TranslatedText>
        </Description>
        <def:Origin Type="Collected"/>
      </ItemDef>
      <ItemDef OID="IT.BW.BWORRES" Name="BWORRES" DataType="text" Length="3" SASFieldName="BWORRES">
        <Description>
          <TranslatedText xml:lang="en">Result or Findings as Collected</TranslatedText>
        </Description>
        <def:Origin Type="Collected"/>
        <def:ValueListRef ValueListOID="VL.BW.BWORRES"/>
      </ItemDef>
      <ItemDef OID="IT.BW.BWORRESU" Name="BWORRESU" DataType="text" Length="1" SASFieldName="BWORRESU">
        <Description>
          <TranslatedText xml:lang="en">Unit of the Original Result</TranslatedText>
        </Description>
        <CodeListRef CodeListOID="CL.BW.UNIT"/>
        <def:Origin Type="Collected"/>
      </ItemDef>
      <ItemDef OID="IT.BW.BWRPDY" Name="BWRPDY" DataType="integer" Length="2" SASFieldName="BWRPDY">
        <Description>
          <TranslatedText xml:lang="en">Actual Repro Phase Day of Observation</TranslatedText>
        </Description>
        <def:Origin Type="Derived"/>
      </ItemDef>
      <ItemDef OID="IT.BW.BWSEQ" Name="BWSEQ" DataType="integer" Length="2" SASFieldName="BWSEQ">
        <Description>
          <TranslatedText xml:lang="en">Sequence Number</TranslatedText>
        </Description>
        <def:Origin Type="Other"/>
      </ItemDef>
      <ItemDef OID="IT.BW.BWSTRESC" Name="BWSTRESC" DataType="text" Length="3" SASFieldName="BWSTRESC">
        <Description>
          <TranslatedText xml:lang="en">Standardized Result in Character Format</TranslatedText>
        </Description>
        <def:Origin Type="Derived"/>
      </ItemDef>
      <ItemDef OID="IT.BW.BWSTRESN" Name="BWSTRESN" DataType="integer" Length="3" SASFieldName="BWSTRESN">
        <Description>
          <TranslatedText xml:lang="en">Standardized Result in Numeric Format</TranslatedText>
        </Description>
        <def:Origin Type="Derived"/>
      </ItemDef>
      <ItemDef OID="IT.BW.BWSTRESU" Name="BWSTRESU" DataType="text" Length="1" SASFieldName="BWSTRESU">
        <Description>
          <TranslatedText xml:lang="en">Unit of the Standardized Result</TranslatedText>
        </Description>
        <CodeListRef CodeListOID="CL.BW.UNIT"/>
        <def:Origin Type="Derived"/>
      </ItemDef>
      <ItemDef OID="IT.BW.BWTEST" Name="BWTEST" DataType="text" Length="20" SASFieldName="BWTEST">
        <Description>
          <TranslatedText xml:lang="en">Test Name</TranslatedText>
        </Description>
        <CodeListRef CodeListOID="CL.BWTEST"/>
        <def:Origin Type="Other"/>
      </ItemDef>
      <ItemDef OID="IT.BW.BWTESTCD" Name="BWTESTCD" DataType="text" Length="6" SASFieldName="BWTESTCD" def:CommentOID="COM.BW.BWTESTCD">
        <Description>
          <TranslatedText xml:lang="en">Test Short Name</TranslatedText>
        </Description>
        <CodeListRef CodeListOID="CL.BWTESTCD"/>
        <def:Origin Type="Other"/>
      </ItemDef>
      <ItemDef OID="IT.BW.DOMAIN" Name="DOMAIN" DataType="text" Length="2" SASFieldName="DOMAIN">
        <Description>
          <TranslatedText xml:lang="en">Domain Abbreviation</TranslatedText>
        </Description>
        <def:Origin Type="Other"/>
      </ItemDef>
      <ItemDef OID="IT.BW.RPHASE" Name="RPHASE" DataType="text" Length="9" SASFieldName="RPHASE">
        <Description>
          <TranslatedText xml:lang="en">Repro Phase</TranslatedText>
        </Description>
        <CodeListRef CodeListOID="CL.NCDPHASE"/>
        <def:Origin Type="Other"/>
      </ItemDef>
      <ItemDef OID="IT.BW.RPPLDY" Name="RPPLDY" DataType="integer" Length="2" SASFieldName="RPPLDY">
        <Description>
          <TranslatedText xml:lang="en">Planned Repro Phase Day of Observation</TranslatedText>
        </Description>
        <def:Origin Type="Derived"/>
      </ItemDef>
      <ItemDef OID="IT.BW.STUDYID" Name="STUDYID" DataType="text" Length="10" SASFieldName="STUDYID">
        <Description>
          <TranslatedText xml:lang="en">Study Identifier</TranslatedText>
        </Description>
        <def:Origin Type="Other"/>
      </ItemDef>
      <ItemDef OID="IT.BW.USUBJID" Name="USUBJID" DataType="text" Length="15" SASFieldName="USUBJID">
        <Description>
          <TranslatedText xml:lang="en">Unique Subject Identifier</TranslatedText>
        </Description>
        <def:Origin Type="Other"/>
      </ItemDef>
      <ItemDef OID="IT.CL.CLCAT" Name="CLCAT" DataType="text" Length="14" SASFieldName="CLCAT" def:CommentOID="COM.CL.CLCAT">
        <Description>
          <TranslatedText xml:lang="en">Category for Clinical Observations</TranslatedText>
        </Description>
        <CodeListRef CodeListOID="CL.CLCAT"/>
        <def:Origin Type="Other"/>
      </ItemDef>
      <ItemDef OID="IT.CL.CLDTC" Name="CLDTC" DataType="datetime" SASFieldName="CLDTC">
        <Description>
          <TranslatedText xml:lang="en">Date/Time of Observation</TranslatedText>
        </Description>
        <def:Origin Type="Collected"/>
      </ItemDef>
      <ItemDef OID="IT.CL.CLELTM" Name="CLELTM" DataType="durationDatetime" SASFieldName="CLELTM" def:CommentOID="COM.CL.CLELTM">
        <Description>
          <TranslatedText xml:lang="en">Planned Elapsed Time from Time Point Ref</TranslatedText>
        </Description>
        <def:Origin Type="Other"/>
      </ItemDef>
      <ItemDef OID="IT.CL.CLLOC" Name="CLLOC" DataType="text" Length="25" SASFieldName="CLLOC">
        <Description>
          <TranslatedText xml:lang="en">Location of a Finding</TranslatedText>
        </Description>
        <def:Origin Type="Collected"/>
      </ItemDef>
      <ItemDef OID="IT.CL.CLORRES" Name="CLORRES" DataType="text" Length="58" SASFieldName="CLORRES">
        <Description>
          <TranslatedText xml:lang="en">Result or Findings as Collected</TranslatedText>
        </Description>
        <def:Origin Type="Derived"/>
      </ItemDef>
      <ItemDef OID="IT.CL.CLRFTDTC" Name="CLRFTDTC" DataType="datetime" SASFieldName="CLRFTDTC" def:CommentOID="COM.CL.CLRFTDTC">
        <Description>
          <TranslatedText xml:lang="en">Date/Time of Reference Time Point</TranslatedText>
        </Description>
        <def:Origin Type="Other"/>
      </ItemDef>
      <ItemDef OID="IT.CL.CLRPDY" Name="CLRPDY" DataType="integer" Length="2" SASFieldName="CLRPDY" def:CommentOID="COM.CL.CLRPDY">
        <Description>
          <TranslatedText xml:lang="en">Actual Repro Phase Day of Observation</TranslatedText>
        </Description>
        <def:Origin Type="Derived"/>
      </ItemDef>
      <ItemDef OID="IT.CL.CLSCAT" Name="CLSCAT" DataType="text" Length="23" SASFieldName="CLSCAT" def:CommentOID="COM.CL.CLSCAT">
        <Description>
          <TranslatedText xml:lang="en">Subcategory for Clinical Observations</TranslatedText>
        </Description>
        <def:Origin Type="Other"/>
      </ItemDef>
      <ItemDef OID="IT.CL.CLSEQ" Name="CLSEQ" DataType="integer" Length="3" SASFieldName="CLSEQ">
        <Description>
          <TranslatedText xml:lang="en">Sequence Number</TranslatedText>
        </Description>
        <def:Origin Type="Other"/>
      </ItemDef>
      <ItemDef OID="IT.CL.CLSTRESC" Name="CLSTRESC" DataType="text" Length="27" SASFieldName="CLSTRESC">
        <Description>
          <TranslatedText xml:lang="en">Standardized Result in Character Format</TranslatedText>
        </Description>
        <def:Origin Type="Collected"/>
      </ItemDef>
      <ItemDef OID="IT.CL.CLTEST" Name="CLTEST" DataType="text" Length="14" SASFieldName="CLTEST">
        <Description>
          <TranslatedText xml:lang="en">Test Name</TranslatedText>
        </Description>
        <def:Origin Type="Other"/>
      </ItemDef>
      <ItemDef OID="IT.CL.CLTESTCD" Name="CLTESTCD" DataType="text" Length="2" SASFieldName="CLTESTCD" def:CommentOID="COM.CL.CLTESTCD">
        <Description>
          <TranslatedText xml:lang="en">Test Short Name</TranslatedText>
        </Description>
        <def:Origin Type="Other"/>
      </ItemDef>
      <ItemDef OID="IT.CL.CLTPT" Name="CLTPT" DataType="text" Length="4" SASFieldName="CLTPT">
        <Description>
          <TranslatedText xml:lang="en">Planned Time Point Name</TranslatedText>
        </Description>
        <def:Origin Type="Collected"/>
      </ItemDef>
      <ItemDef OID="IT.CL.CLTPTNUM" Name="CLTPTNUM" DataType="integer" Length="1" SASFieldName="CLTPTNUM">
        <Description>
          <TranslatedText xml:lang="en">Planned Time Point Number</TranslatedText>
        </Description>
        <def:Origin Type="Other"/>
      </ItemDef>
      <ItemDef OID="IT.CL.CLTPTREF" Name="CLTPTREF" DataType="text" Length="11" SASFieldName="CLTPTREF" def:CommentOID="COM.CL.CLTPTREF">
        <Description>
          <TranslatedText xml:lang="en">Time Point Reference</TranslatedText>
        </Description>
        <def:Origin Type="Other"/>
      </ItemDef>
      <ItemDef OID="IT.CL.DOMAIN" Name="DOMAIN" DataType="text" Length="2" SASFieldName="DOMAIN">
        <Description>
          <TranslatedText xml:lang="en">Domain Abbreviation</TranslatedText>
        </Description>
        <def:Origin Type="Other"/>
      </ItemDef>
      <ItemDef OID="IT.CL.RPHASE" Name="RPHASE" DataType="text" Length="9" SASFieldName="RPHASE">
        <Description>
          <TranslatedText xml:lang="en">Repro Phase</TranslatedText>
        </Description>
        <CodeListRef CodeListOID="CL.NCDPHASE"/>
        <def:Origin Type="Other"/>
      </ItemDef>
      <ItemDef OID="IT.CL.RPPLDY" Name="RPPLDY" DataType="integer" Length="2" SASFieldName="RPPLDY">
        <Description>
          <TranslatedText xml:lang="en">Planned Repro Phase Day of Observation</TranslatedText>
        </Description>
        <def:Origin Type="Derived"/>
      </ItemDef>
      <ItemDef OID="IT.CL.STUDYID" Name="STUDYID" DataType="text" Length="10" SASFieldName="STUDYID">
        <Description>
          <TranslatedText xml:lang="en">Study Identifier</TranslatedText>
        </Description>
        <def:Origin Type="Other"/>
      </ItemDef>
      <ItemDef OID="IT.CL.USUBJID" Name="USUBJID" DataType="text" Length="15" SASFieldName="USUBJID">
        <Description>
          <TranslatedText xml:lang="en">Unique Subject Identifier</TranslatedText>
        </Description>
        <def:Origin Type="Other"/>
      </ItemDef>
      <ItemDef OID="IT.CO.CODTC" Name="CODTC" DataType="datetime" SASFieldName="CODTC" def:CommentOID="COM.CO.CODTC">
        <Description>
          <TranslatedText xml:lang="en">Date/Time of Comment</TranslatedText>
        </Description>
        <def:Origin Type="Collected"/>
      </ItemDef>
      <ItemDef OID="IT.CO.COSEQ" Name="COSEQ" DataType="integer" Length="1" SASFieldName="COSEQ">
        <Description>
          <TranslatedText xml:lang="en">Sequence Number</TranslatedText>
        </Description>
        <def:Origin Type="Other"/>
      </ItemDef>
      <ItemDef OID="IT.CO.COVAL" Name="COVAL" DataType="text" Length="24" SASFieldName="COVAL">
        <Description>
          <TranslatedText xml:lang="en">Comment</TranslatedText>
        </Description>
        <def:Origin Type="Collected"/>
      </ItemDef>
      <ItemDef OID="IT.CO.DOMAIN" Name="DOMAIN" DataType="text" Length="2" SASFieldName="DOMAIN">
        <Description>
          <TranslatedText xml:lang="en">Domain Abbreviation</TranslatedText>
        </Description>
        <def:Origin Type="Other"/>
      </ItemDef>
      <ItemDef OID="IT.CO.IDVAR" Name="IDVAR" DataType="text" Length="5" SASFieldName="IDVAR">
        <Description>
          <TranslatedText xml:lang="en">Identifying Variable</TranslatedText>
        </Description>
        <def:Origin Type="Other"/>
      </ItemDef>
      <ItemDef OID="IT.CO.IDVARVAL" Name="IDVARVAL" DataType="text" Length="1" SASFieldName="IDVARVAL">
        <Description>
          <TranslatedText xml:lang="en">Identifying Variable Value</TranslatedText>
        </Description>
        <def:Origin Type="Other"/>
      </ItemDef>
      <ItemDef OID="IT.CO.RDOMAIN" Name="RDOMAIN" DataType="text" Length="2" SASFieldName="RDOMAIN">
        <Description>
          <TranslatedText xml:lang="en">Related Domain Abbreviation</TranslatedText>
        </Description>
        <CodeListRef CodeListOID="CL.CO.RDOMAIN"/>
        <def:Origin Type="Other"/>
      </ItemDef>
      <ItemDef OID="IT.CO.RPHASE" Name="RPHASE" DataType="text" Length="9" SASFieldName="RPHASE">
        <Description>
          <TranslatedText xml:lang="en">Repro Phase</TranslatedText>
        </Description>
        <CodeListRef CodeListOID="CL.NCDPHASE"/>
        <def:Origin Type="Other"/>
      </ItemDef>
      <ItemDef OID="IT.CO.STUDYID" Name="STUDYID" DataType="text" Length="10" SASFieldName="STUDYID">
        <Description>
          <TranslatedText xml:lang="en">Study Identifier</TranslatedText>
        </Description>
        <def:Origin Type="Other"/>
      </ItemDef>
      <ItemDef OID="IT.CO.USUBJID" Name="USUBJID" DataType="text" Length="15" SASFieldName="USUBJID">
        <Description>
          <TranslatedText xml:lang="en">Unique Subject Identifier</TranslatedText>
        </Description>
        <def:Origin Type="Other"/>
      </ItemDef>
      <ItemDef OID="IT.DD.DDDTC" Name="DDDTC" DataType="datetime" SASFieldName="DDDTC">
        <Description>
          <TranslatedText xml:lang="en">Date/Time</TranslatedText>
        </Description>
        <def:Origin Type="Collected"/>
      </ItemDef>
      <ItemDef OID="IT.DD.DDORRES" Name="DDORRES" DataType="text" Length="12" SASFieldName="DDORRES">
        <Description>
          <TranslatedText xml:lang="en">Result or Findings as Collected</TranslatedText>
        </Description>
        <def:Origin Type="Collected"/>
      </ItemDef>
      <ItemDef OID="IT.DD.DDRPDY" Name="DDRPDY" DataType="integer" Length="2" SASFieldName="DDRPDY">
        <Description>
          <TranslatedText xml:lang="en">Actual Repro Phase Day of Observation</TranslatedText>
        </Description>
        <def:Origin Type="Derived"/>
      </ItemDef>
      <ItemDef OID="IT.DD.DDSEQ" Name="DDSEQ" DataType="integer" Length="1" SASFieldName="DDSEQ">
        <Description>
          <TranslatedText xml:lang="en">Sequence Number</TranslatedText>
        </Description>
        <def:Origin Type="Other"/>
      </ItemDef>
      <ItemDef OID="IT.DD.DDSTRESC" Name="DDSTRESC" DataType="text" Length="12" SASFieldName="DDSTRESC">
        <Description>
          <TranslatedText xml:lang="en">Standardized Result in Character Format</TranslatedText>
        </Description>
        <def:Origin Type="Derived"/>
      </ItemDef>
      <ItemDef OID="IT.DD.DDTEST" Name="DDTEST" DataType="text" Length="15" SASFieldName="DDTEST">
        <Description>
          <TranslatedText xml:lang="en">Death Diagnosis Name</TranslatedText>
        </Description>
        <CodeListRef CodeListOID="CL.DDTEST"/>
        <def:Origin Type="Other"/>
      </ItemDef>
      <ItemDef OID="IT.DD.DDTESTCD" Name="DDTESTCD" DataType="text" Length="6" SASFieldName="DDTESTCD" def:CommentOID="COM.DD.DDTESTCD">
        <Description>
          <TranslatedText xml:lang="en">Death Diagnosis Short Name</TranslatedText>
        </Description>
        <CodeListRef CodeListOID="CL.DDTESTCD"/>
        <def:Origin Type="Other"/>
      </ItemDef>
      <ItemDef OID="IT.DD.DOMAIN" Name="DOMAIN" DataType="text" Length="2" SASFieldName="DOMAIN">
        <Description>
          <TranslatedText xml:lang="en">Domain Abbreviation</TranslatedText>
        </Description>
        <def:Origin Type="Other"/>
      </ItemDef>
      <ItemDef OID="IT.DD.RPHASE" Name="RPHASE" DataType="text" Length="9" SASFieldName="RPHASE">
        <Description>
          <TranslatedText xml:lang="en">Repro Phase</TranslatedText>
        </Description>
        <CodeListRef CodeListOID="CL.NCDPHASE"/>
        <def:Origin Type="Other"/>
      </ItemDef>
      <ItemDef OID="IT.DD.STUDYID" Name="STUDYID" DataType="text" Length="10" SASFieldName="STUDYID">
        <Description>
          <TranslatedText xml:lang="en">Study Identifier</TranslatedText>
        </Description>
        <def:Origin Type="Other"/>
      </ItemDef>
      <ItemDef OID="IT.DD.USUBJID" Name="USUBJID" DataType="text" Length="15" SASFieldName="USUBJID">
        <Description>
          <TranslatedText xml:lang="en">Unique Subject Identifier</TranslatedText>
        </Description>
        <def:Origin Type="Other"/>
      </ItemDef>
      <ItemDef OID="IT.DM.AGE" Name="AGE" DataType="integer" Length="1" SASFieldName="AGE">
        <Description>
          <TranslatedText xml:lang="en">Age</TranslatedText>
        </Description>
        <def:Origin Type="Other"/>
      </ItemDef>
      <ItemDef OID="IT.DM.AGEU" Name="AGEU" DataType="text" Length="4" SASFieldName="AGEU">
        <Description>
          <TranslatedText xml:lang="en">Age Unit</TranslatedText>
        </Description>
        <CodeListRef CodeListOID="CL.AGEU"/>
        <def:Origin Type="Other"/>
      </ItemDef>
      <ItemDef OID="IT.DM.ARM" Name="ARM" DataType="text" Length="37" SASFieldName="ARM">
        <Description>
          <TranslatedText xml:lang="en">Description of Planned Arm</TranslatedText>
        </Description>
        <CodeListRef CodeListOID="CL.ARM"/>
        <def:Origin Type="Other"/>
      </ItemDef>
      <ItemDef OID="IT.DM.ARMCD" Name="ARMCD" DataType="text" Length="3" SASFieldName="ARMCD">
        <Description>
          <TranslatedText xml:lang="en">Planned Arm Code</TranslatedText>
        </Description>
        <CodeListRef CodeListOID="CL.ARMCD"/>
        <def:Origin Type="Other"/>
      </ItemDef>
      <ItemDef OID="IT.DM.BRTHDTC" Name="BRTHDTC" DataType="date" SASFieldName="BRTHDTC">
        <Description>
          <TranslatedText xml:lang="en">Date/Time of Birth</TranslatedText>
        </Description>
        <def:Origin Type="Collected"/>
      </ItemDef>
      <ItemDef OID="IT.DM.DOMAIN" Name="DOMAIN" DataType="text" Length="2" SASFieldName="DOMAIN">
        <Description>
          <TranslatedText xml:lang="en">Domain Abbreviation</TranslatedText>
        </Description>
        <def:Origin Type="Other"/>
      </ItemDef>
      <ItemDef OID="IT.DM.RFENDTC" Name="RFENDTC" DataType="date" SASFieldName="RFENDTC" def:CommentOID="COM.DM.RFENDTC">
        <Description>
          <TranslatedText xml:lang="en">Subject Reference End Date/Time</TranslatedText>
        </Description>
        <def:Origin Type="Collected"/>
      </ItemDef>
      <ItemDef OID="IT.DM.RFSTDTC" Name="RFSTDTC" DataType="date" SASFieldName="RFSTDTC" def:CommentOID="COM.DM.RFSTDTC">
        <Description>
          <TranslatedText xml:lang="en">Subject Reference Start Date/Time</TranslatedText>
        </Description>
        <def:Origin Type="Collected"/>
      </ItemDef>
      <ItemDef OID="IT.DM.RFXENDTC" Name="RFXENDTC" DataType="datetime" SASFieldName="RFXENDTC">
        <Description>
          <TranslatedText xml:lang="en">Date/Time of Last Study Treatment</TranslatedText>
        </Description>
        <def:Origin Type="Other"/>
      </ItemDef>
      <ItemDef OID="IT.DM.RFXSTDTC" Name="RFXSTDTC" DataType="datetime" SASFieldName="RFXSTDTC">
        <Description>
          <TranslatedText xml:lang="en">Date/Time of First Study Treatment</TranslatedText>
        </Description>
        <def:Origin Type="Other"/>
      </ItemDef>
      <ItemDef OID="IT.DM.RPATHCD" Name="RPATHCD" DataType="text" Length="3" SASFieldName="RPATHCD">
        <Description>
          <TranslatedText xml:lang="en">Planned Repro Path Code</TranslatedText>
        </Description>
        <def:Origin Type="Other"/>
      </ItemDef>
      <ItemDef OID="IT.DM.SETCD" Name="SETCD" DataType="text" Length="3" SASFieldName="SETCD">
        <Description>
          <TranslatedText xml:lang="en">Set Code</TranslatedText>
        </Description>
        <CodeListRef CodeListOID="CL.DM.SETCD"/>
        <def:Origin Type="Other"/>
      </ItemDef>
      <ItemDef OID="IT.DM.SEX" Name="SEX" DataType="text" Length="1" SASFieldName="SEX">
        <Description>
          <TranslatedText xml:lang="en">Sex</TranslatedText>
        </Description>
        <CodeListRef CodeListOID="CL.SEX"/>
        <def:Origin Type="Collected"/>
      </ItemDef>
      <ItemDef OID="IT.DM.STUDYID" Name="STUDYID" DataType="text" Length="10" SASFieldName="STUDYID">
        <Description>
          <TranslatedText xml:lang="en">Study Identifier</TranslatedText>
        </Description>
        <def:Origin Type="Other"/>
      </ItemDef>
      <ItemDef OID="IT.DM.SUBJID" Name="SUBJID" DataType="text" Length="4" SASFieldName="SUBJID">
        <Description>
          <TranslatedText xml:lang="en">Subject Identifier for the Study</TranslatedText>
        </Description>
        <def:Origin Type="Other"/>
      </ItemDef>
      <ItemDef OID="IT.DM.USUBJID" Name="USUBJID" DataType="text" Length="15" SASFieldName="USUBJID">
        <Description>
          <TranslatedText xml:lang="en">Unique Subject Identifier</TranslatedText>
        </Description>
        <def:Origin Type="Other"/>
      </ItemDef>
      <ItemDef OID="IT.DP.DOMAIN" Name="DOMAIN" DataType="text" Length="2" SASFieldName="DOMAIN">
        <Description>
          <TranslatedText xml:lang="en">Domain Abbreviation</TranslatedText>
        </Description>
        <def:Origin Type="Other"/>
      </ItemDef>
      <ItemDef OID="IT.DP.DPDTC" Name="DPDTC" DataType="date" SASFieldName="DPDTC">
        <Description>
          <TranslatedText xml:lang="en">Date/Time</TranslatedText>
        </Description>
        <def:Origin Type="Collected"/>
      </ItemDef>
      <ItemDef OID="IT.DP.DPEXCLFL" Name="DPEXCLFL" DataType="text" Length="1" SASFieldName="DPEXCLFL">
        <Description>
          <TranslatedText xml:lang="en">Exclusion Flag</TranslatedText>
        </Description>
        <CodeListRef CodeListOID="CL.DP.DPEXCLFL.NY"/>
        <def:Origin Type="Collected"/>
      </ItemDef>
      <ItemDef OID="IT.DP.DPORRES" Name="DPORRES" DataType="text" Length="1" SASFieldName="DPORRES">
        <Description>
          <TranslatedText xml:lang="en">Result or Findings as Collected</TranslatedText>
        </Description>
        <def:Origin Type="Collected"/>
        <def:ValueListRef ValueListOID="VL.DP.DPORRES"/>
      </ItemDef>
      <ItemDef OID="IT.DP.DPREASEX" Name="DPREASEX" DataType="text" Length="135" SASFieldName="DPREASEX">
        <Description>
          <TranslatedText xml:lang="en">Reason for Exclusion</TranslatedText>
        </Description>
        <def:Origin Type="Collected"/>
      </ItemDef>
      <ItemDef OID="IT.DP.DPREASND" Name="DPREASND" DataType="text" Length="24" SASFieldName="DPREASND">
        <Description>
          <TranslatedText xml:lang="en">Reason Test Not Done</TranslatedText>
        </Description>
        <def:Origin Type="Collected"/>
      </ItemDef>
      <ItemDef OID="IT.DP.DPRPDY" Name="DPRPDY" DataType="integer" Length="2" SASFieldName="DPRPDY">
        <Description>
          <TranslatedText xml:lang="en">Actual Repro Phase Day of Observation</TranslatedText>
        </Description>
        <def:Origin Type="Derived"/>
      </ItemDef>
      <ItemDef OID="IT.DP.DPSEQ" Name="DPSEQ" DataType="integer" Length="3" SASFieldName="DPSEQ">
        <Description>
          <TranslatedText xml:lang="en">Sequence Number</TranslatedText>
        </Description>
        <def:Origin Type="Other"/>
      </ItemDef>
      <ItemDef OID="IT.DP.DPSTAT" Name="DPSTAT" DataType="text" Length="8" SASFieldName="DPSTAT">
        <Description>
          <TranslatedText xml:lang="en">Completion Status</TranslatedText>
        </Description>
        <CodeListRef CodeListOID="CL.ND"/>
        <def:Origin Type="Collected"/>
      </ItemDef>
      <ItemDef OID="IT.DP.DPSTRESC" Name="DPSTRESC" DataType="text" Length="4" SASFieldName="DPSTRESC">
        <Description>
          <TranslatedText xml:lang="en">Standardized Results in Character Format</TranslatedText>
        </Description>
        <CodeListRef CodeListOID="CL.DPFINDRS"/>
        <def:Origin Type="Derived"/>
        <def:ValueListRef ValueListOID="VL.DP.DPSTRESC"/>
      </ItemDef>
      <ItemDef OID="IT.DP.DPTEST" Name="DPTEST" DataType="text" Length="20" SASFieldName="DPTEST">
        <Description>
          <TranslatedText xml:lang="en">Developmental Milestone Test Name</TranslatedText>
        </Description>
        <CodeListRef CodeListOID="CL.DPTEST"/>
        <def:Origin Type="Other"/>
      </ItemDef>
      <ItemDef OID="IT.DP.DPTESTCD" Name="DPTESTCD" DataType="text" Length="9" SASFieldName="DPTESTCD" def:CommentOID="COM.DP.DPTESTCD">
        <Description>
          <TranslatedText xml:lang="en">Test Short Name</TranslatedText>
        </Description>
        <CodeListRef CodeListOID="CL.DPTESTCD"/>
        <def:Origin Type="Other"/>
      </ItemDef>
      <ItemDef OID="IT.DP.RPHASE" Name="RPHASE" DataType="text" Length="9" SASFieldName="RPHASE">
        <Description>
          <TranslatedText xml:lang="en">Repro Phase</TranslatedText>
        </Description>
        <CodeListRef CodeListOID="CL.NCDPHASE"/>
        <def:Origin Type="Other"/>
      </ItemDef>
      <ItemDef OID="IT.DP.RPPLDY" Name="RPPLDY" DataType="integer" Length="2" SASFieldName="RPPLDY">
        <Description>
          <TranslatedText xml:lang="en">Planned Repro Phase Day of Observation</TranslatedText>
        </Description>
        <def:Origin Type="Derived"/>
      </ItemDef>
      <ItemDef OID="IT.DP.STUDYID" Name="STUDYID" DataType="text" Length="10" SASFieldName="STUDYID">
        <Description>
          <TranslatedText xml:lang="en">Study Identifier</TranslatedText>
        </Description>
        <def:Origin Type="Other"/>
      </ItemDef>
      <ItemDef OID="IT.DP.USUBJID" Name="USUBJID" DataType="text" Length="15" SASFieldName="USUBJID">
        <Description>
          <TranslatedText xml:lang="en">Unique Subject Identifier</TranslatedText>
        </Description>
        <def:Origin Type="Other"/>
      </ItemDef>
      <ItemDef OID="IT.DS.DOMAIN" Name="DOMAIN" DataType="text" Length="2" SASFieldName="DOMAIN">
        <Description>
          <TranslatedText xml:lang="en">Domain Abbreviation</TranslatedText>
        </Description>
        <def:Origin Type="Other"/>
      </ItemDef>
      <ItemDef OID="IT.DS.DSDECOD" Name="DSDECOD" DataType="text" Length="18" SASFieldName="DSDECOD" def:CommentOID="COM.DS.DSDECOD">
        <Description>
          <TranslatedText xml:lang="en">Standardized Disposition Term</TranslatedText>
        </Description>
        <CodeListRef CodeListOID="CL.DSDECOD"/>
        <def:Origin Type="Other"/>
      </ItemDef>
      <ItemDef OID="IT.DS.DSRPSTDY" Name="DSRPSTDY" DataType="integer" Length="2" SASFieldName="DSRPSTDY">
        <Description>
          <TranslatedText xml:lang="en">Actual Repro Phase Day of Obs Start</TranslatedText>
        </Description>
        <def:Origin Type="Derived"/>
      </ItemDef>
      <ItemDef OID="IT.DS.DSSEQ" Name="DSSEQ" DataType="integer" Length="1" SASFieldName="DSSEQ">
        <Description>
          <TranslatedText xml:lang="en">Sequence Number</TranslatedText>
        </Description>
        <def:Origin Type="Other"/>
      </ItemDef>
      <ItemDef OID="IT.DS.DSSTDTC" Name="DSSTDTC" DataType="datetime" SASFieldName="DSSTDTC">
        <Description>
          <TranslatedText xml:lang="en">Date/Time of Disposition</TranslatedText>
        </Description>
        <def:Origin Type="Collected"/>
      </ItemDef>
      <ItemDef OID="IT.DS.DSTERM" Name="DSTERM" DataType="text" Length="22" SASFieldName="DSTERM">
        <Description>
          <TranslatedText xml:lang="en">Reported Term for the Disposition Event</TranslatedText>
        </Description>
        <def:Origin Type="Collected"/>
      </ItemDef>
      <ItemDef OID="IT.DS.DSUSCHFL" Name="DSUSCHFL" DataType="text" Length="1" SASFieldName="DSUSCHFL">
        <Description>
          <TranslatedText xml:lang="en">Unscheduled Flag</TranslatedText>
        </Description>
        <CodeListRef CodeListOID="CL.DS.DSUSCHFL.NY"/>
        <def:Origin Type="Other"/>
      </ItemDef>
      <ItemDef OID="IT.DS.RPHASE" Name="RPHASE" DataType="text" Length="9" SASFieldName="RPHASE">
        <Description>
          <TranslatedText xml:lang="en">Repro Phase</TranslatedText>
        </Description>
        <CodeListRef CodeListOID="CL.NCDPHASE"/>
        <def:Origin Type="Other"/>
      </ItemDef>
      <ItemDef OID="IT.DS.RPPLSTDY" Name="RPPLSTDY" DataType="integer" Length="2" SASFieldName="RPPLSTDY">
        <Description>
          <TranslatedText xml:lang="en">Planned Repro Phase Day of Obs Start</TranslatedText>
        </Description>
        <def:Origin Type="Derived"/>
      </ItemDef>
      <ItemDef OID="IT.DS.STUDYID" Name="STUDYID" DataType="text" Length="10" SASFieldName="STUDYID">
        <Description>
          <TranslatedText xml:lang="en">Study Identifier</TranslatedText>
        </Description>
        <def:Origin Type="Other"/>
      </ItemDef>
      <ItemDef OID="IT.DS.USUBJID" Name="USUBJID" DataType="text" Length="15" SASFieldName="USUBJID">
        <Description>
          <TranslatedText xml:lang="en">Unique Subject Identifier</TranslatedText>
        </Description>
        <def:Origin Type="Other"/>
      </ItemDef>
      <ItemDef OID="IT.EX.DOMAIN" Name="DOMAIN" DataType="text" Length="2" SASFieldName="DOMAIN">
        <Description>
          <TranslatedText xml:lang="en">Domain Abbreviation</TranslatedText>
        </Description>
        <def:Origin Type="Other"/>
      </ItemDef>
      <ItemDef OID="IT.EX.EXDOSE" Name="EXDOSE" DataType="float" Length="5" SignificantDigits="2" SASFieldName="EXDOSE" def:DisplayFormat="5.2">
        <Description>
          <TranslatedText xml:lang="en">Dose per Administration</TranslatedText>
        </Description>
        <def:Origin Type="Collected"/>
      </ItemDef>
      <ItemDef OID="IT.EX.EXDOSFRM" Name="EXDOSFRM" DataType="text" Length="8" SASFieldName="EXDOSFRM">
        <Description>
          <TranslatedText xml:lang="en">Dose Form</TranslatedText>
        </Description>
        <CodeListRef CodeListOID="CL.FRM"/>
        <def:Origin Type="Other"/>
      </ItemDef>
      <ItemDef OID="IT.EX.EXDOSFRQ" Name="EXDOSFRQ" DataType="text" Length="2" SASFieldName="EXDOSFRQ">
        <Description>
          <TranslatedText xml:lang="en">Dosing Frequency Per Interval</TranslatedText>
        </Description>
        <CodeListRef CodeListOID="CL.FREQ"/>
        <def:Origin Type="Other"/>
      </ItemDef>
      <ItemDef OID="IT.EX.EXDOSU" Name="EXDOSU" DataType="text" Length="2" SASFieldName="EXDOSU">
        <Description>
          <TranslatedText xml:lang="en">Dose Units</TranslatedText>
        </Description>
        <CodeListRef CodeListOID="CL.EX.EXDOSU.UNIT"/>
        <def:Origin Type="Collected"/>
      </ItemDef>
      <ItemDef OID="IT.EX.EXLOT" Name="EXLOT" DataType="text" Length="14" SASFieldName="EXLOT">
        <Description>
          <TranslatedText xml:lang="en">Lot Number</TranslatedText>
        </Description>
        <def:Origin Type="Collected"/>
      </ItemDef>
      <ItemDef OID="IT.EX.EXROUTE" Name="EXROUTE" DataType="text" Length="11" SASFieldName="EXROUTE">
        <Description>
          <TranslatedText xml:lang="en">Route of Administration</TranslatedText>
        </Description>
        <CodeListRef CodeListOID="CL.ROUTE"/>
        <def:Origin Type="Other"/>
      </ItemDef>
      <ItemDef OID="IT.EX.EXRPSTDY" Name="EXRPSTDY" DataType="integer" Length="2" SASFieldName="EXRPSTDY">
        <Description>
          <TranslatedText xml:lang="en">Actual Repro Phase Day of Obs Start</TranslatedText>
        </Description>
        <def:Origin Type="Derived"/>
      </ItemDef>
      <ItemDef OID="IT.EX.EXSEQ" Name="EXSEQ" DataType="integer" Length="2" SASFieldName="EXSEQ">
        <Description>
          <TranslatedText xml:lang="en">Sequence Number</TranslatedText>
        </Description>
        <def:Origin Type="Other"/>
      </ItemDef>
      <ItemDef OID="IT.EX.EXSTDTC" Name="EXSTDTC" DataType="datetime" SASFieldName="EXSTDTC">
        <Description>
          <TranslatedText xml:lang="en">Start Date/Time of Treatment</TranslatedText>
        </Description>
        <def:Origin Type="Collected"/>
      </ItemDef>
      <ItemDef OID="IT.EX.EXTRT" Name="EXTRT" DataType="text" Length="14" SASFieldName="EXTRT">
        <Description>
          <TranslatedText xml:lang="en">Name of Actual Treatment</TranslatedText>
        </Description>
        <def:Origin Type="Other"/>
      </ItemDef>
      <ItemDef OID="IT.EX.EXTRTV" Name="EXTRTV" DataType="text" Length="15" SASFieldName="EXTRTV">
        <Description>
          <TranslatedText xml:lang="en">Treatment Vehicle</TranslatedText>
        </Description>
        <def:Origin Type="Other"/>
      </ItemDef>
      <ItemDef OID="IT.EX.EXVAMT" Name="EXVAMT" DataType="float" Length="4" SignificantDigits="2" SASFieldName="EXVAMT" def:DisplayFormat="4.2">
        <Description>
          <TranslatedText xml:lang="en">Amount Administered</TranslatedText>
        </Description>
        <def:Origin Type="Collected"/>
      </ItemDef>
      <ItemDef OID="IT.EX.EXVAMTU" Name="EXVAMTU" DataType="text" Length="2" SASFieldName="EXVAMTU">
        <Description>
          <TranslatedText xml:lang="en">Amount Administered Units</TranslatedText>
        </Description>
        <CodeListRef CodeListOID="CL.EX.EXVAMTU.UNIT"/>
        <def:Origin Type="Collected"/>
      </ItemDef>
      <ItemDef OID="IT.EX.RPHASE" Name="RPHASE" DataType="text" Length="9" SASFieldName="RPHASE">
        <Description>
          <TranslatedText xml:lang="en">Repro Phase</TranslatedText>
        </Description>
        <CodeListRef CodeListOID="CL.NCDPHASE"/>
        <def:Origin Type="Other"/>
      </ItemDef>
      <ItemDef OID="IT.EX.RPPLSTDY" Name="RPPLSTDY" DataType="integer" Length="2" SASFieldName="RPPLSTDY">
        <Description>
          <TranslatedText xml:lang="en">Planned Repro Phase Day of Obs Start</TranslatedText>
        </Description>
        <def:Origin Type="Derived"/>
      </ItemDef>
      <ItemDef OID="IT.EX.STUDYID" Name="STUDYID" DataType="text" Length="10" SASFieldName="STUDYID">
        <Description>
          <TranslatedText xml:lang="en">Study Identifier</TranslatedText>
        </Description>
        <def:Origin Type="Other"/>
      </ItemDef>
      <ItemDef OID="IT.EX.USUBJID" Name="USUBJID" DataType="text" Length="15" SASFieldName="USUBJID">
        <Description>
          <TranslatedText xml:lang="en">Unique Subject Identifier</TranslatedText>
        </Description>
        <def:Origin Type="Other"/>
      </ItemDef>
      <ItemDef OID="IT.FW.DOMAIN" Name="DOMAIN" DataType="text" Length="2" SASFieldName="DOMAIN">
        <Description>
          <TranslatedText xml:lang="en">Domain Abbreviation</TranslatedText>
        </Description>
        <def:Origin Type="Other"/>
      </ItemDef>
      <ItemDef OID="IT.FW.FWDTC" Name="FWDTC" DataType="datetime" SASFieldName="FWDTC">
        <Description>
          <TranslatedText xml:lang="en">Start Date/Time of Observation</TranslatedText>
        </Description>
        <def:Origin Type="Collected"/>
      </ItemDef>
      <ItemDef OID="IT.FW.FWENDTC" Name="FWENDTC" DataType="datetime" SASFieldName="FWENDTC">
        <Description>
          <TranslatedText xml:lang="en">End Date/Time of Observation</TranslatedText>
        </Description>
        <def:Origin Type="Collected"/>
      </ItemDef>
      <ItemDef OID="IT.FW.FWORRES" Name="FWORRES" DataType="text" Length="3" SASFieldName="FWORRES">
        <Description>
          <TranslatedText xml:lang="en">Result or Findings as Collected</TranslatedText>
        </Description>
        <def:Origin Type="Collected"/>
        <def:ValueListRef ValueListOID="VL.FW.FWORRES"/>
      </ItemDef>
      <ItemDef OID="IT.FW.FWORRESU" Name="FWORRESU" DataType="text" Length="1" SASFieldName="FWORRESU">
        <Description>
          <TranslatedText xml:lang="en">Unit of the Original Result</TranslatedText>
        </Description>
        <CodeListRef CodeListOID="CL.FW.UNIT"/>
        <def:Origin Type="Collected"/>
      </ItemDef>
      <ItemDef OID="IT.FW.FWRPDY" Name="FWRPDY" DataType="integer" Length="2" SASFieldName="FWRPDY">
        <Description>
          <TranslatedText xml:lang="en">Actual Repro Phase Day of Observation</TranslatedText>
        </Description>
        <def:Origin Type="Derived"/>
      </ItemDef>
      <ItemDef OID="IT.FW.FWRPENDY" Name="FWRPENDY" DataType="integer" Length="2" SASFieldName="FWRPENDY">
        <Description>
          <TranslatedText xml:lang="en">Actual Repro Phase Day of Obs End</TranslatedText>
        </Description>
        <def:Origin Type="Derived"/>
      </ItemDef>
      <ItemDef OID="IT.FW.FWSEQ" Name="FWSEQ" DataType="integer" Length="2" SASFieldName="FWSEQ">
        <Description>
          <TranslatedText xml:lang="en">Sequence Number</TranslatedText>
        </Description>
        <def:Origin Type="Other"/>
      </ItemDef>
      <ItemDef OID="IT.FW.FWSTRESC" Name="FWSTRESC" DataType="text" Length="2" SASFieldName="FWSTRESC">
        <Description>
          <TranslatedText xml:lang="en">Standardized Result in Character Format</TranslatedText>
        </Description>
        <def:Origin Type="Derived"/>
        <def:ValueListRef ValueListOID="VL.FW.FWSTRESC"/>
      </ItemDef>
      <ItemDef OID="IT.FW.FWSTRESN" Name="FWSTRESN" DataType="integer" Length="2" SASFieldName="FWSTRESN">
        <Description>
          <TranslatedText xml:lang="en">Standardized Result in Numeric Format</TranslatedText>
        </Description>
        <def:Origin Type="Derived"/>
      </ItemDef>
      <ItemDef OID="IT.FW.FWSTRESU" Name="FWSTRESU" DataType="text" Length="12" SASFieldName="FWSTRESU" def:CommentOID="COM.FW.FWSTRESU">
        <Description>
          <TranslatedText xml:lang="en">Unit of the Standardized Result</TranslatedText>
        </Description>
        <CodeListRef CodeListOID="CL.FW.UNIT"/>
        <def:Origin Type="Other"/>
      </ItemDef>
      <ItemDef OID="IT.FW.FWTEST" Name="FWTEST" DataType="text" Length="16" SASFieldName="FWTEST">
        <Description>
          <TranslatedText xml:lang="en">Food/Water Consumption Name</TranslatedText>
        </Description>
        <CodeListRef CodeListOID="CL.FWTEST"/>
        <def:Origin Type="Other"/>
      </ItemDef>
      <ItemDef OID="IT.FW.FWTESTCD" Name="FWTESTCD" DataType="text" Length="2" SASFieldName="FWTESTCD" def:CommentOID="COM.FW.FWTESTCD">
        <Description>
          <TranslatedText xml:lang="en">Food/Water Consumption Short Name</TranslatedText>
        </Description>
        <CodeListRef CodeListOID="CL.FWTESTCD"/>
        <def:Origin Type="Other"/>
      </ItemDef>
      <ItemDef OID="IT.FW.POOLID" Name="POOLID" DataType="text" Length="13" SASFieldName="POOLID">
        <Description>
          <TranslatedText xml:lang="en">Pool Identifier</TranslatedText>
        </Description>
        <def:Origin Type="Other"/>
      </ItemDef>
      <ItemDef OID="IT.FW.RPHASE" Name="RPHASE" DataType="text" Length="9" SASFieldName="RPHASE">
        <Description>
          <TranslatedText xml:lang="en">Repro Phase</TranslatedText>
        </Description>
        <CodeListRef CodeListOID="CL.NCDPHASE"/>
        <def:Origin Type="Other"/>
      </ItemDef>
      <ItemDef OID="IT.FW.RPPLDY" Name="RPPLDY" DataType="integer" Length="2" SASFieldName="RPPLDY">
        <Description>
          <TranslatedText xml:lang="en">Planned Repro Phase Day of Observation</TranslatedText>
        </Description>
        <def:Origin Type="Derived"/>
      </ItemDef>
      <ItemDef OID="IT.FW.RPPLENDY" Name="RPPLENDY" DataType="integer" Length="2" SASFieldName="RPPLENDY">
        <Description>
          <TranslatedText xml:lang="en">Planned Repro Phase Day of Obs End</TranslatedText>
        </Description>
        <def:Origin Type="Derived"/>
      </ItemDef>
      <ItemDef OID="IT.FW.STUDYID" Name="STUDYID" DataType="text" Length="10" SASFieldName="STUDYID">
        <Description>
          <TranslatedText xml:lang="en">Study Identifier</TranslatedText>
        </Description>
        <def:Origin Type="Other"/>
      </ItemDef>
      <ItemDef OID="IT.FW.USUBJID" Name="USUBJID" DataType="text" Length="15" SASFieldName="USUBJID" def:CommentOID="COM.FW.USUBJID">
        <Description>
          <TranslatedText xml:lang="en">Unique Subject Identifier</TranslatedText>
        </Description>
        <def:Origin Type="Other"/>
      </ItemDef>
      <ItemDef OID="IT.LB.DOMAIN" Name="DOMAIN" DataType="text" Length="2" SASFieldName="DOMAIN">
        <Description>
          <TranslatedText xml:lang="en">Domain Abbreviation</TranslatedText>
        </Description>
        <def:Origin Type="Other"/>
      </ItemDef>
      <ItemDef OID="IT.LB.LBBLFL" Name="LBBLFL" DataType="text" Length="1" SASFieldName="LBBLFL" def:CommentOID="COM.LB.LBBLFL">
        <Description>
          <TranslatedText xml:lang="en">Baseline Flag</TranslatedText>
        </Description>
        <def:Origin Type="Derived"/>
      </ItemDef>
      <ItemDef OID="IT.LB.LBCAT" Name="LBCAT" DataType="text" Length="18" SASFieldName="LBCAT" def:CommentOID="COM.LB.LBCAT">
        <Description>
          <TranslatedText xml:lang="en">Category for Lab Test</TranslatedText>
        </Description>
        <def:Origin Type="Other"/>
      </ItemDef>
      <ItemDef OID="IT.LB.LBDRVFL" Name="LBDRVFL" DataType="text" Length="1" SASFieldName="LBDRVFL">
        <Description>
          <TranslatedText xml:lang="en">Derived Flag</TranslatedText>
        </Description>
        <CodeListRef CodeListOID="CL.LB.LBDRVFL.NY"/>
        <def:Origin Type="Other"/>
      </ItemDef>
      <ItemDef OID="IT.LB.LBDTC" Name="LBDTC" DataType="datetime" SASFieldName="LBDTC">
        <Description>
          <TranslatedText xml:lang="en">Date/Time of Specimen Collection</TranslatedText>
        </Description>
        <def:Origin Type="Collected"/>
      </ItemDef>
      <ItemDef OID="IT.LB.LBMETHOD" Name="LBMETHOD" DataType="text" Length="29" SASFieldName="LBMETHOD">
        <Description>
          <TranslatedText xml:lang="en">Method of Test or Examination</TranslatedText>
        </Description>
        <def:Origin Type="Other"/>
      </ItemDef>
      <ItemDef OID="IT.LB.LBORRES" Name="LBORRES" DataType="text" Length="5" SASFieldName="LBORRES">
        <Description>
          <TranslatedText xml:lang="en">Result or Findings as Collected</TranslatedText>
        </Description>
        <def:Origin Type="Collected"/>
        <def:ValueListRef ValueListOID="VL.LB.LBORRES"/>
      </ItemDef>
      <ItemDef OID="IT.LB.LBORRESU" Name="LBORRESU" DataType="text" Length="7" SASFieldName="LBORRESU">
        <Description>
          <TranslatedText xml:lang="en">Unit of the Original Result</TranslatedText>
        </Description>
        <CodeListRef CodeListOID="CL.LB.UNIT"/>
        <def:Origin Type="Collected"/>
      </ItemDef>
      <ItemDef OID="IT.LB.LBREASND" Name="LBREASND" DataType="text" Length="23" SASFieldName="LBREASND">
        <Description>
          <TranslatedText xml:lang="en">Reason Not Done</TranslatedText>
        </Description>
        <def:Origin Type="Collected"/>
      </ItemDef>
      <ItemDef OID="IT.LB.LBRPDY" Name="LBRPDY" DataType="integer" Length="2" SASFieldName="LBRPDY">
        <Description>
          <TranslatedText xml:lang="en">Actual Repro Phase Day of Observation</TranslatedText>
        </Description>
        <def:Origin Type="Derived"/>
      </ItemDef>
      <ItemDef OID="IT.LB.LBSCAT" Name="LBSCAT" DataType="text" Length="5" SASFieldName="LBSCAT">
        <Description>
          <TranslatedText xml:lang="en">Subcategory for Lab Test</TranslatedText>
        </Description>
        <def:Origin Type="Other"/>
      </ItemDef>
      <ItemDef OID="IT.LB.LBSEQ" Name="LBSEQ" DataType="integer" Length="2" SASFieldName="LBSEQ">
        <Description>
          <TranslatedText xml:lang="en">Sequence Number</TranslatedText>
        </Description>
        <def:Origin Type="Other"/>
      </ItemDef>
      <ItemDef OID="IT.LB.LBSPEC" Name="LBSPEC" DataType="text" Length="11" SASFieldName="LBSPEC" def:CommentOID="COM.LB.LBSPEC">
        <Description>
          <TranslatedText xml:lang="en">Specimen Material Type</TranslatedText>
        </Description>
        <CodeListRef CodeListOID="CL.LB.SPEC"/>
        <def:Origin Type="Other"/>
      </ItemDef>
      <ItemDef OID="IT.LB.LBSTAT" Name="LBSTAT" DataType="text" Length="8" SASFieldName="LBSTAT">
        <Description>
          <TranslatedText xml:lang="en">Completion Status</TranslatedText>
        </Description>
        <CodeListRef CodeListOID="CL.ND"/>
        <def:Origin Type="Collected"/>
      </ItemDef>
      <ItemDef OID="IT.LB.LBSTRESC" Name="LBSTRESC" DataType="text" Length="12" SASFieldName="LBSTRESC">
        <Description>
          <TranslatedText xml:lang="en">Standardized Result in Character Format</TranslatedText>
        </Description>
        <def:Origin Type="Derived"/>
      </ItemDef>
      <ItemDef OID="IT.LB.LBSTRESN" Name="LBSTRESN" DataType="float" Length="8" SignificantDigits="3" SASFieldName="LBSTRESN" def:DisplayFormat="8.3">
        <Description>
          <TranslatedText xml:lang="en">Standardized Result in Numeric Format</TranslatedText>
        </Description>
        <def:Origin Type="Derived"/>
      </ItemDef>
      <ItemDef OID="IT.LB.LBSTRESU" Name="LBSTRESU" DataType="text" Length="7" SASFieldName="LBSTRESU">
        <Description>
          <TranslatedText xml:lang="en">Unit of the Standardized Result</TranslatedText>
        </Description>
        <CodeListRef CodeListOID="CL.LB.UNIT"/>
        <def:Origin Type="Derived"/>
      </ItemDef>
      <ItemDef OID="IT.LB.LBTEST" Name="LBTEST" DataType="text" Length="39" SASFieldName="LBTEST">
        <Description>
          <TranslatedText xml:lang="en">Lab Test or Examination Name</TranslatedText>
        </Description>
        <CodeListRef CodeListOID="CL.LBTEST"/>
        <def:Origin Type="Other"/>
      </ItemDef>
      <ItemDef OID="IT.LB.LBTESTCD" Name="LBTESTCD" DataType="text" Length="8" SASFieldName="LBTESTCD" def:CommentOID="COM.LB.LBTESTCD">
        <Description>
          <TranslatedText xml:lang="en">Lab Test or Examination Short Name</TranslatedText>
        </Description>
        <CodeListRef CodeListOID="CL.LBTESTCD"/>
        <def:Origin Type="Other"/>
      </ItemDef>
      <ItemDef OID="IT.LB.LBUSCHFL" Name="LBUSCHFL" DataType="text" Length="1" SASFieldName="LBUSCHFL" def:CommentOID="COM.LB.LBUSCHFL">
        <Description>
          <TranslatedText xml:lang="en">Unscheduled Flag</TranslatedText>
        </Description>
        <def:Origin Type="Other"/>
      </ItemDef>
      <ItemDef OID="IT.LB.RPHASE" Name="RPHASE" DataType="text" Length="9" SASFieldName="RPHASE">
        <Description>
          <TranslatedText xml:lang="en">Repro Phase</TranslatedText>
        </Description>
        <CodeListRef CodeListOID="CL.NCDPHASE"/>
        <def:Origin Type="Other"/>
      </ItemDef>
      <ItemDef OID="IT.LB.RPPLDY" Name="RPPLDY" DataType="integer" Length="2" SASFieldName="RPPLDY">
        <Description>
          <TranslatedText xml:lang="en">Planned Repro Phase Day of Observation</TranslatedText>
        </Description>
        <def:Origin Type="Derived"/>
      </ItemDef>
      <ItemDef OID="IT.LB.STUDYID" Name="STUDYID" DataType="text" Length="10" SASFieldName="STUDYID">
        <Description>
          <TranslatedText xml:lang="en">Study Identifier</TranslatedText>
        </Description>
        <def:Origin Type="Other"/>
      </ItemDef>
      <ItemDef OID="IT.LB.USUBJID" Name="USUBJID" DataType="text" Length="15" SASFieldName="USUBJID">
        <Description>
          <TranslatedText xml:lang="en">Unique Subject Identifier</TranslatedText>
        </Description>
        <def:Origin Type="Other"/>
      </ItemDef>
      <ItemDef OID="IT.OM.DOMAIN" Name="DOMAIN" DataType="text" Length="2" SASFieldName="DOMAIN">
        <Description>
          <TranslatedText xml:lang="en">Domain Abbreviation</TranslatedText>
        </Description>
        <def:Origin Type="Other"/>
      </ItemDef>
      <ItemDef OID="IT.OM.OMDTC" Name="OMDTC" DataType="datetime" SASFieldName="OMDTC">
        <Description>
          <TranslatedText xml:lang="en">Date/Time Organ Measured</TranslatedText>
        </Description>
        <def:Origin Type="Collected"/>
      </ItemDef>
      <ItemDef OID="IT.OM.OMORRES" Name="OMORRES" DataType="text" Length="7" SASFieldName="OMORRES">
        <Description>
          <TranslatedText xml:lang="en">Result or Findings as Collected</TranslatedText>
        </Description>
        <def:Origin Type="Other"/>
        <def:ValueListRef ValueListOID="VL.OM.OMORRES"/>
      </ItemDef>
      <ItemDef OID="IT.OM.OMORRESU" Name="OMORRESU" DataType="text" Length="2" SASFieldName="OMORRESU">
        <Description>
          <TranslatedText xml:lang="en">Unit of the Original Result</TranslatedText>
        </Description>
        <CodeListRef CodeListOID="CL.OM.UNIT"/>
        <def:Origin Type="Collected"/>
      </ItemDef>
      <ItemDef OID="IT.OM.OMRPDY" Name="OMRPDY" DataType="integer" Length="2" SASFieldName="OMRPDY">
        <Description>
          <TranslatedText xml:lang="en">Actual Repro Phase Day of Observation</TranslatedText>
        </Description>
        <def:Origin Type="Derived"/>
      </ItemDef>
      <ItemDef OID="IT.OM.OMSEQ" Name="OMSEQ" DataType="integer" Length="1" SASFieldName="OMSEQ">
        <Description>
          <TranslatedText xml:lang="en">Sequence Number</TranslatedText>
        </Description>
        <def:Origin Type="Other"/>
      </ItemDef>
      <ItemDef OID="IT.OM.OMSPEC" Name="OMSPEC" DataType="text" Length="11" SASFieldName="OMSPEC">
        <Description>
          <TranslatedText xml:lang="en">Specimen Material Type</TranslatedText>
        </Description>
        <CodeListRef CodeListOID="CL.OM.SPEC"/>
        <def:Origin Type="Derived"/>
      </ItemDef>
      <ItemDef OID="IT.OM.OMSTRESC" Name="OMSTRESC" DataType="text" Length="7" SASFieldName="OMSTRESC">
        <Description>
          <TranslatedText xml:lang="en">Standardized Result in Character Format</TranslatedText>
        </Description>
        <def:Origin Type="Derived"/>
      </ItemDef>
      <ItemDef OID="IT.OM.OMSTRESN" Name="OMSTRESN" DataType="float" Length="8" SignificantDigits="5" SASFieldName="OMSTRESN" def:DisplayFormat="8.5">
        <Description>
          <TranslatedText xml:lang="en">Standardized Result in Numeric Format</TranslatedText>
        </Description>
        <def:Origin Type="Derived"/>
      </ItemDef>
      <ItemDef OID="IT.OM.OMSTRESU" Name="OMSTRESU" DataType="text" Length="2" SASFieldName="OMSTRESU">
        <Description>
          <TranslatedText xml:lang="en">Unit of the Standardized Result</TranslatedText>
        </Description>
        <CodeListRef CodeListOID="CL.OM.UNIT"/>
        <def:Origin Type="Derived"/>
      </ItemDef>
      <ItemDef OID="IT.OM.OMTEST" Name="OMTEST" DataType="text" Length="26" SASFieldName="OMTEST">
        <Description>
          <TranslatedText xml:lang="en">Test Name</TranslatedText>
        </Description>
        <CodeListRef CodeListOID="CL.OMTEST"/>
        <def:Origin Type="Other"/>
      </ItemDef>
      <ItemDef OID="IT.OM.OMTESTCD" Name="OMTESTCD" DataType="text" Length="6" SASFieldName="OMTESTCD" def:CommentOID="COM.OM.OMTESTCD">
        <Description>
          <TranslatedText xml:lang="en">Test Short Name</TranslatedText>
        </Description>
        <CodeListRef CodeListOID="CL.OMTESTCD"/>
        <def:Origin Type="Other"/>
      </ItemDef>
      <ItemDef OID="IT.OM.RPHASE" Name="RPHASE" DataType="text" Length="9" SASFieldName="RPHASE">
        <Description>
          <TranslatedText xml:lang="en">Repro Phase</TranslatedText>
        </Description>
        <CodeListRef CodeListOID="CL.NCDPHASE"/>
        <def:Origin Type="Other"/>
      </ItemDef>
      <ItemDef OID="IT.OM.RPPLDY" Name="RPPLDY" DataType="integer" Length="2" SASFieldName="RPPLDY">
        <Description>
          <TranslatedText xml:lang="en">Planned Repro Phase Day of Observation</TranslatedText>
        </Description>
        <def:Origin Type="Derived"/>
      </ItemDef>
      <ItemDef OID="IT.OM.STUDYID" Name="STUDYID" DataType="text" Length="10" SASFieldName="STUDYID">
        <Description>
          <TranslatedText xml:lang="en">Study Identifier</TranslatedText>
        </Description>
        <def:Origin Type="Other"/>
      </ItemDef>
      <ItemDef OID="IT.OM.USUBJID" Name="USUBJID" DataType="text" Length="15" SASFieldName="USUBJID">
        <Description>
          <TranslatedText xml:lang="en">Unique Subject Identifier</TranslatedText>
        </Description>
        <def:Origin Type="Other"/>
      </ItemDef>
      <ItemDef OID="IT.POOLDEF.POOLID" Name="POOLID" DataType="text" Length="13" SASFieldName="POOLID">
        <Description>
          <TranslatedText xml:lang="en">Pool Identifier</TranslatedText>
        </Description>
        <def:Origin Type="Other"/>
      </ItemDef>
      <ItemDef OID="IT.POOLDEF.STUDYID" Name="STUDYID" DataType="text" Length="10" SASFieldName="STUDYID">
        <Description>
          <TranslatedText xml:lang="en">Study Identifier</TranslatedText>
        </Description>
        <def:Origin Type="Other"/>
      </ItemDef>
      <ItemDef OID="IT.POOLDEF.USUBJID" Name="USUBJID" DataType="text" Length="15" SASFieldName="USUBJID">
        <Description>
          <TranslatedText xml:lang="en">Unique Subject Identifier</TranslatedText>
        </Description>
        <def:Origin Type="Other"/>
      </ItemDef>
      <ItemDef OID="IT.SC.DOMAIN" Name="DOMAIN" DataType="text" Length="2" SASFieldName="DOMAIN">
        <Description>
          <TranslatedText xml:lang="en">Domain Abbreviation</TranslatedText>
        </Description>
        <def:Origin Type="Other"/>
      </ItemDef>
      <ItemDef OID="IT.SC.SCORRES" Name="SCORRES" DataType="text" Length="4" SASFieldName="SCORRES">
        <Description>
          <TranslatedText xml:lang="en">Result or Findings as Collected</TranslatedText>
        </Description>
        <def:Origin Type="Collected"/>
      </ItemDef>
      <ItemDef OID="IT.SC.SCSEQ" Name="SCSEQ" DataType="integer" Length="1" SASFieldName="SCSEQ">
        <Description>
          <TranslatedText xml:lang="en">Sequence Number</TranslatedText>
        </Description>
        <def:Origin Type="Other"/>
      </ItemDef>
      <ItemDef OID="IT.SC.SCSTRESC" Name="SCSTRESC" DataType="text" Length="4" SASFieldName="SCSTRESC">
        <Description>
          <TranslatedText xml:lang="en">Standardized Result in Character Format</TranslatedText>
        </Description>
        <def:Origin Type="Derived"/>
      </ItemDef>
      <ItemDef OID="IT.SC.SCTEST" Name="SCTEST" DataType="text" Length="13" SASFieldName="SCTEST">
        <Description>
          <TranslatedText xml:lang="en">Subject Characteristic</TranslatedText>
        </Description>
        <CodeListRef CodeListOID="CL.SBCSND"/>
        <def:Origin Type="Other"/>
      </ItemDef>
      <ItemDef OID="IT.SC.SCTESTCD" Name="SCTESTCD" DataType="text" Length="8" SASFieldName="SCTESTCD" def:CommentOID="COM.SC.SCTESTCD">
        <Description>
          <TranslatedText xml:lang="en">Subject Characteristic Short Name</TranslatedText>
        </Description>
        <CodeListRef CodeListOID="CL.SBCCDSND"/>
        <def:Origin Type="Other"/>
      </ItemDef>
      <ItemDef OID="IT.SC.STUDYID" Name="STUDYID" DataType="text" Length="10" SASFieldName="STUDYID">
        <Description>
          <TranslatedText xml:lang="en">Study Identifier</TranslatedText>
        </Description>
        <def:Origin Type="Other"/>
      </ItemDef>
      <ItemDef OID="IT.SC.USUBJID" Name="USUBJID" DataType="text" Length="15" SASFieldName="USUBJID">
        <Description>
          <TranslatedText xml:lang="en">Unique Subject Identifier</TranslatedText>
        </Description>
        <def:Origin Type="Other"/>
      </ItemDef>
      <ItemDef OID="IT.SE.DOMAIN" Name="DOMAIN" DataType="text" Length="2" SASFieldName="DOMAIN">
        <Description>
          <TranslatedText xml:lang="en">Domain Abbreviation</TranslatedText>
        </Description>
        <def:Origin Type="Other"/>
      </ItemDef>
      <ItemDef OID="IT.SE.ELEMENT" Name="ELEMENT" DataType="text" Length="27" SASFieldName="ELEMENT">
        <Description>
          <TranslatedText xml:lang="en">Description of Element</TranslatedText>
        </Description>
        <CodeListRef CodeListOID="CL.ELEMENT"/>
        <def:Origin Type="Other"/>
      </ItemDef>
      <ItemDef OID="IT.SE.ETCD" Name="ETCD" DataType="text" Length="8" SASFieldName="ETCD">
        <Description>
          <TranslatedText xml:lang="en">Element Code</TranslatedText>
        </Description>
        <CodeListRef CodeListOID="CL.ETCD"/>
        <def:Origin Type="Other"/>
      </ItemDef>
      <ItemDef OID="IT.SE.SEENDTC" Name="SEENDTC" DataType="date" SASFieldName="SEENDTC">
        <Description>
          <TranslatedText xml:lang="en">End Date/Time of Element</TranslatedText>
        </Description>
        <def:Origin Type="Collected"/>
      </ItemDef>
      <ItemDef OID="IT.SE.SESEQ" Name="SESEQ" DataType="integer" Length="1" SASFieldName="SESEQ">
        <Description>
          <TranslatedText xml:lang="en">Sequence Number</TranslatedText>
        </Description>
        <def:Origin Type="Other"/>
      </ItemDef>
      <ItemDef OID="IT.SE.SESTDTC" Name="SESTDTC" DataType="date" SASFieldName="SESTDTC">
        <Description>
          <TranslatedText xml:lang="en">Start Date/Time of Element</TranslatedText>
        </Description>
        <def:Origin Type="Collected"/>
      </ItemDef>
      <ItemDef OID="IT.SE.STUDYID" Name="STUDYID" DataType="text" Length="10" SASFieldName="STUDYID">
        <Description>
          <TranslatedText xml:lang="en">Study Identifier</TranslatedText>
        </Description>
        <def:Origin Type="Other"/>
      </ItemDef>
      <ItemDef OID="IT.SE.USUBJID" Name="USUBJID" DataType="text" Length="15" SASFieldName="USUBJID">
        <Description>
          <TranslatedText xml:lang="en">Unique Subject Identifier</TranslatedText>
        </Description>
        <def:Origin Type="Other"/>
      </ItemDef>
      <ItemDef OID="IT.SJ.DOMAIN" Name="DOMAIN" DataType="text" Length="2" SASFieldName="DOMAIN">
        <Description>
          <TranslatedText xml:lang="en">Domain Abbreviation</TranslatedText>
        </Description>
        <def:Origin Type="Other"/>
      </ItemDef>
      <ItemDef OID="IT.SJ.RPHASE" Name="RPHASE" DataType="text" Length="9" SASFieldName="RPHASE">
        <Description>
          <TranslatedText xml:lang="en">Repro Phase</TranslatedText>
        </Description>
        <CodeListRef CodeListOID="CL.NCDPHASE"/>
        <def:Origin Type="Other"/>
      </ItemDef>
      <ItemDef OID="IT.SJ.RSTAGE" Name="RSTAGE" DataType="text" Length="9" SASFieldName="RSTAGE">
        <Description>
          <TranslatedText xml:lang="en">Description of Repro Stage</TranslatedText>
        </Description>
        <def:Origin Type="Other"/>
      </ItemDef>
      <ItemDef OID="IT.SJ.RSTGCD" Name="RSTGCD" DataType="text" Length="3" SASFieldName="RSTGCD">
        <Description>
          <TranslatedText xml:lang="en">Repro Stage Code</TranslatedText>
        </Description>
        <def:Origin Type="Other"/>
      </ItemDef>
      <ItemDef OID="IT.SJ.SJENDTC" Name="SJENDTC" DataType="date" SASFieldName="SJENDTC">
        <Description>
          <TranslatedText xml:lang="en">End Date/Time of Repro Stage</TranslatedText>
        </Description>
        <def:Origin Type="Collected"/>
      </ItemDef>
      <ItemDef OID="IT.SJ.SJSEQ" Name="SJSEQ" DataType="integer" Length="1" SASFieldName="SJSEQ">
        <Description>
          <TranslatedText xml:lang="en">Sequence Number</TranslatedText>
        </Description>
        <def:Origin Type="Other"/>
      </ItemDef>
      <ItemDef OID="IT.SJ.SJSTDTC" Name="SJSTDTC" DataType="date" SASFieldName="SJSTDTC">
        <Description>
          <TranslatedText xml:lang="en">Start Date/Time of Repro Stage</TranslatedText>
        </Description>
        <def:Origin Type="Collected"/>
      </ItemDef>
      <ItemDef OID="IT.SJ.STUDYID" Name="STUDYID" DataType="text" Length="10" SASFieldName="STUDYID">
        <Description>
          <TranslatedText xml:lang="en">Study Identifier</TranslatedText>
        </Description>
        <def:Origin Type="Other"/>
      </ItemDef>
      <ItemDef OID="IT.SJ.USUBJID" Name="USUBJID" DataType="text" Length="15" SASFieldName="USUBJID">
        <Description>
          <TranslatedText xml:lang="en">Unique Subject Identifier</TranslatedText>
        </Description>
        <def:Origin Type="Other"/>
      </ItemDef>
      <ItemDef OID="IT.SUPPCL.IDVAR" Name="IDVAR" DataType="text" Length="5" SASFieldName="IDVAR">
        <Description>
          <TranslatedText xml:lang="en">Identifying Variable</TranslatedText>
        </Description>
        <def:Origin Type="Other"/>
      </ItemDef>
      <ItemDef OID="IT.SUPPCL.IDVARVAL" Name="IDVARVAL" DataType="text" Length="2" SASFieldName="IDVARVAL">
        <Description>
          <TranslatedText xml:lang="en">Identifying Variable Value</TranslatedText>
        </Description>
        <def:Origin Type="Other"/>
      </ItemDef>
      <ItemDef OID="IT.SUPPCL.QLABEL" Name="QLABEL" DataType="text" Length="16" SASFieldName="QLABEL">
        <Description>
          <TranslatedText xml:lang="en">Qualifier Variable Label</TranslatedText>
        </Description>
        <def:Origin Type="Other"/>
      </ItemDef>
      <ItemDef OID="IT.SUPPCL.QNAM" Name="QNAM" DataType="text" Length="8" SASFieldName="QNAM">
        <Description>
          <TranslatedText xml:lang="en">Qualifier Variable Name</TranslatedText>
        </Description>
        <def:Origin Type="Other"/>
      </ItemDef>
      <ItemDef OID="IT.SUPPCL.QORIG" Name="QORIG" DataType="text" Length="9" SASFieldName="QORIG">
        <Description>
          <TranslatedText xml:lang="en">Origin</TranslatedText>
        </Description>
        <def:Origin Type="Other"/>
      </ItemDef>
      <ItemDef OID="IT.SUPPCL.QVAL" Name="QVAL" DataType="text" Length="28" SASFieldName="QVAL">
        <Description>
          <TranslatedText xml:lang="en">Data Value</TranslatedText>
        </Description>
        <def:Origin Type="Collected"/>
        <def:ValueListRef ValueListOID="VL.SUPPCL.QVAL"/>
      </ItemDef>
      <ItemDef OID="IT.SUPPCL.RDOMAIN" Name="RDOMAIN" DataType="text" Length="2" SASFieldName="RDOMAIN">
        <Description>
          <TranslatedText xml:lang="en">Related Domain Abbreviation</TranslatedText>
        </Description>
        <CodeListRef CodeListOID="CL.SUPPCL.RDOMAIN"/>
        <def:Origin Type="Other"/>
      </ItemDef>
      <ItemDef OID="IT.SUPPCL.STUDYID" Name="STUDYID" DataType="text" Length="10" SASFieldName="STUDYID">
        <Description>
          <TranslatedText xml:lang="en">Study Identifier</TranslatedText>
        </Description>
        <def:Origin Type="Other"/>
      </ItemDef>
      <ItemDef OID="IT.SUPPCL.USUBJID" Name="USUBJID" DataType="text" Length="15" SASFieldName="USUBJID">
        <Description>
          <TranslatedText xml:lang="en">Unique Subject Identifier</TranslatedText>
        </Description>
        <def:Origin Type="Other"/>
      </ItemDef>
      <ItemDef OID="IT.TA.ARM" Name="ARM" DataType="text" Length="37" SASFieldName="ARM">
        <Description>
          <TranslatedText xml:lang="en">Description of Planned Arm</TranslatedText>
        </Description>
        <CodeListRef CodeListOID="CL.ARM"/>
        <def:Origin Type="Other"/>
      </ItemDef>
      <ItemDef OID="IT.TA.ARMCD" Name="ARMCD" DataType="text" Length="3" SASFieldName="ARMCD">
        <Description>
          <TranslatedText xml:lang="en">Planned Arm Code</TranslatedText>
        </Description>
        <CodeListRef CodeListOID="CL.ARMCD"/>
        <def:Origin Type="Other"/>
      </ItemDef>
      <ItemDef OID="IT.TA.DOMAIN" Name="DOMAIN" DataType="text" Length="2" SASFieldName="DOMAIN">
        <Description>
          <TranslatedText xml:lang="en">Domain Abbreviation</TranslatedText>
        </Description>
        <def:Origin Type="Other"/>
      </ItemDef>
      <ItemDef OID="IT.TA.ELEMENT" Name="ELEMENT" DataType="text" Length="27" SASFieldName="ELEMENT">
        <Description>
          <TranslatedText xml:lang="en">Description of Element</TranslatedText>
        </Description>
        <CodeListRef CodeListOID="CL.ELEMENT"/>
        <def:Origin Type="Other"/>
      </ItemDef>
      <ItemDef OID="IT.TA.EPOCH" Name="EPOCH" DataType="text" Length="13" SASFieldName="EPOCH">
        <Description>
          <TranslatedText xml:lang="en">Trial Epoch</TranslatedText>
        </Description>
        <def:Origin Type="Other"/>
      </ItemDef>
      <ItemDef OID="IT.TA.ETCD" Name="ETCD" DataType="text" Length="8" SASFieldName="ETCD">
        <Description>
          <TranslatedText xml:lang="en">Element Code</TranslatedText>
        </Description>
        <CodeListRef CodeListOID="CL.ETCD"/>
        <def:Origin Type="Other"/>
      </ItemDef>
      <ItemDef OID="IT.TA.STUDYID" Name="STUDYID" DataType="text" Length="10" SASFieldName="STUDYID">
        <Description>
          <TranslatedText xml:lang="en">Study Identifier</TranslatedText>
        </Description>
        <def:Origin Type="Other"/>
      </ItemDef>
      <ItemDef OID="IT.TA.TAETORD" Name="TAETORD" DataType="integer" Length="1" SASFieldName="TAETORD">
        <Description>
          <TranslatedText xml:lang="en">Order of Element within Arm</TranslatedText>
        </Description>
        <def:Origin Type="Other"/>
      </ItemDef>
      <ItemDef OID="IT.TE.DOMAIN" Name="DOMAIN" DataType="text" Length="2" SASFieldName="DOMAIN">
        <Description>
          <TranslatedText xml:lang="en">Domain Abbreviation</TranslatedText>
        </Description>
        <def:Origin Type="Other"/>
      </ItemDef>
      <ItemDef OID="IT.TE.ELEMENT" Name="ELEMENT" DataType="text" Length="27" SASFieldName="ELEMENT">
        <Description>
          <TranslatedText xml:lang="en">Description of Element</TranslatedText>
        </Description>
        <CodeListRef CodeListOID="CL.ELEMENT"/>
        <def:Origin Type="Other"/>
      </ItemDef>
      <ItemDef OID="IT.TE.ETCD" Name="ETCD" DataType="text" Length="8" SASFieldName="ETCD">
        <Description>
          <TranslatedText xml:lang="en">Element Code</TranslatedText>
        </Description>
        <CodeListRef CodeListOID="CL.ETCD"/>
        <def:Origin Type="Other"/>
      </ItemDef>
      <ItemDef OID="IT.TE.STUDYID" Name="STUDYID" DataType="text" Length="10" SASFieldName="STUDYID">
        <Description>
          <TranslatedText xml:lang="en">Study Identifier</TranslatedText>
        </Description>
        <def:Origin Type="Other"/>
      </ItemDef>
      <ItemDef OID="IT.TE.TEENRL" Name="TEENRL" DataType="text" Length="46" SASFieldName="TEENRL">
        <Description>
          <TranslatedText xml:lang="en">Rule for End of Element</TranslatedText>
        </Description>
        <def:Origin Type="Other"/>
      </ItemDef>
      <ItemDef OID="IT.TE.TESTRL" Name="TESTRL" DataType="text" Length="48" SASFieldName="TESTRL">
        <Description>
          <TranslatedText xml:lang="en">Rule for Start of Element</TranslatedText>
        </Description>
        <def:Origin Type="Other"/>
      </ItemDef>
      <ItemDef OID="IT.TP.DOMAIN" Name="DOMAIN" DataType="text" Length="2" SASFieldName="DOMAIN">
        <Description>
          <TranslatedText xml:lang="en">Domain Abbreviation</TranslatedText>
        </Description>
        <def:Origin Type="Other"/>
      </ItemDef>
      <ItemDef OID="IT.TP.RPATH" Name="RPATH" DataType="text" Length="15" SASFieldName="RPATH">
        <Description>
          <TranslatedText xml:lang="en">Description of Planned Repro Path</TranslatedText>
        </Description>
        <CodeListRef CodeListOID="CL.TP.RPATH"/>
        <def:Origin Type="Other"/>
      </ItemDef>
      <ItemDef OID="IT.TP.RPATHCD" Name="RPATHCD" DataType="text" Length="3" SASFieldName="RPATHCD">
        <Description>
          <TranslatedText xml:lang="en">Planned Repro Path Code</TranslatedText>
        </Description>
        <CodeListRef CodeListOID="CL.TP.RPATHCD"/>
        <def:Origin Type="Other"/>
      </ItemDef>
      <ItemDef OID="IT.TP.RPHASE" Name="RPHASE" DataType="text" Length="9" SASFieldName="RPHASE">
        <Description>
          <TranslatedText xml:lang="en">Repro Phase</TranslatedText>
        </Description>
        <CodeListRef CodeListOID="CL.NCDPHASE"/>
        <def:Origin Type="Other"/>
      </ItemDef>
      <ItemDef OID="IT.TP.RPRFDY" Name="RPRFDY" DataType="integer" Length="1" SASFieldName="RPRFDY">
        <Description>
          <TranslatedText xml:lang="en">Repro Phase Start Reference Day</TranslatedText>
        </Description>
        <def:Origin Type="Other"/>
      </ItemDef>
      <ItemDef OID="IT.TP.RSTAGE" Name="RSTAGE" DataType="text" Length="9" SASFieldName="RSTAGE">
        <Description>
          <TranslatedText xml:lang="en">Description of Repro Stage</TranslatedText>
        </Description>
        <CodeListRef CodeListOID="CL.TP.RSTAGE"/>
        <def:Origin Type="Other"/>
      </ItemDef>
      <ItemDef OID="IT.TP.RSTGCD" Name="RSTGCD" DataType="text" Length="3" SASFieldName="RSTGCD">
        <Description>
          <TranslatedText xml:lang="en">Repro Stage Code</TranslatedText>
        </Description>
        <CodeListRef CodeListOID="CL.TP.RSTGCD"/>
        <def:Origin Type="Other"/>
      </ItemDef>
      <ItemDef OID="IT.TP.STUDYID" Name="STUDYID" DataType="text" Length="10" SASFieldName="STUDYID">
        <Description>
          <TranslatedText xml:lang="en">Study Identifier</TranslatedText>
        </Description>
        <def:Origin Type="Other"/>
      </ItemDef>
      <ItemDef OID="IT.TP.TPSTGORD" Name="TPSTGORD" DataType="integer" Length="1" SASFieldName="TPSTGORD">
        <Description>
          <TranslatedText xml:lang="en">Order of Repro Stage within Repro Path</TranslatedText>
        </Description>
        <def:Origin Type="Other"/>
      </ItemDef>
      <ItemDef OID="IT.TS.DOMAIN" Name="DOMAIN" DataType="text" Length="2" SASFieldName="DOMAIN">
        <Description>
          <TranslatedText xml:lang="en">Domain Abbreviation</TranslatedText>
        </Description>
        <def:Origin Type="Other"/>
      </ItemDef>
      <ItemDef OID="IT.TS.STUDYID" Name="STUDYID" DataType="text" Length="10" SASFieldName="STUDYID">
        <Description>
          <TranslatedText xml:lang="en">Study Identifier</TranslatedText>
        </Description>
        <def:Origin Type="Other"/>
      </ItemDef>
      <ItemDef OID="IT.TS.TSGRPID" Name="TSGRPID" DataType="text" Length="1" SASFieldName="TSGRPID" def:CommentOID="COM.TS.TSGRPID">
        <Description>
          <TranslatedText xml:lang="en">Group Identifier</TranslatedText>
        </Description>
        <def:Origin Type="Other"/>
      </ItemDef>
      <ItemDef OID="IT.TS.TSPARM" Name="TSPARM" DataType="text" Length="38" SASFieldName="TSPARM">
        <Description>
          <TranslatedText xml:lang="en">Trial Summary Parameter</TranslatedText>
        </Description>
        <CodeListRef CodeListOID="CL.STSPRM"/>
        <def:Origin Type="Other"/>
      </ItemDef>
      <ItemDef OID="IT.TS.TSPARMCD" Name="TSPARMCD" DataType="text" Length="8" SASFieldName="TSPARMCD">
        <Description>
          <TranslatedText xml:lang="en">Trial Summary Parameter Short Name</TranslatedText>
        </Description>
        <CodeListRef CodeListOID="CL.STSPRMCD"/>
        <def:Origin Type="Other"/>
      </ItemDef>
      <ItemDef OID="IT.TS.TSSEQ" Name="TSSEQ" DataType="integer" Length="2" SASFieldName="TSSEQ" def:CommentOID="COM.TS.TSSEQ">
        <Description>
          <TranslatedText xml:lang="en">Sequence Number</TranslatedText>
        </Description>
        <def:Origin Type="Other"/>
      </ItemDef>
      <ItemDef OID="IT.TS.TSVAL" Name="TSVAL" DataType="text" Length="199" SASFieldName="TSVAL">
        <Description>
          <TranslatedText xml:lang="en">Parameter Value</TranslatedText>
        </Description>
        <def:Origin Type="Other"/>
        <def:ValueListRef ValueListOID="VL.TS.TSVAL"/>
      </ItemDef>
      <ItemDef OID="IT.TS.TSVAL1" Name="TSVAL1" DataType="text" Length="54" SASFieldName="TSVAL1">
        <Description>
          <TranslatedText xml:lang="en">Parameter Value1</TranslatedText>
        </Description>
        <def:Origin Type="Other"/>
      </ItemDef>
      <ItemDef OID="IT.TT.DOMAIN" Name="DOMAIN" DataType="text" Length="2" SASFieldName="DOMAIN">
        <Description>
          <TranslatedText xml:lang="en">Domain Abbreviation</TranslatedText>
        </Description>
        <def:Origin Type="Other"/>
      </ItemDef>
      <ItemDef OID="IT.TT.RSTAGE" Name="RSTAGE" DataType="text" Length="9" SASFieldName="RSTAGE">
        <Description>
          <TranslatedText xml:lang="en">Description of Repro Stage</TranslatedText>
        </Description>
        <CodeListRef CodeListOID="CL.TT.RSTAGE"/>
        <def:Origin Type="Other"/>
      </ItemDef>
      <ItemDef OID="IT.TT.RSTGCD" Name="RSTGCD" DataType="text" Length="3" SASFieldName="RSTGCD">
        <Description>
          <TranslatedText xml:lang="en">Repro Stage Code</TranslatedText>
        </Description>
        <CodeListRef CodeListOID="CL.TT.RSTGCD"/>
        <def:Origin Type="Other"/>
      </ItemDef>
      <ItemDef OID="IT.TT.STUDYID" Name="STUDYID" DataType="text" Length="10" SASFieldName="STUDYID">
        <Description>
          <TranslatedText xml:lang="en">Study Identifier</TranslatedText>
        </Description>
        <def:Origin Type="Other"/>
      </ItemDef>
      <ItemDef OID="IT.TT.TTENRL" Name="TTENRL" DataType="text" Length="9" SASFieldName="TTENRL">
        <Description>
          <TranslatedText xml:lang="en">Rule for End of Repro Stage</TranslatedText>
        </Description>
        <def:Origin Type="Other"/>
      </ItemDef>
      <ItemDef OID="IT.TT.TTSTRL" Name="TTSTRL" DataType="text" Length="5" SASFieldName="TTSTRL">
        <Description>
          <TranslatedText xml:lang="en">Rule for Start of Repro Stage</TranslatedText>
        </Description>
        <def:Origin Type="Other"/>
      </ItemDef>
      <ItemDef OID="IT.TX.DOMAIN" Name="DOMAIN" DataType="text" Length="2" SASFieldName="DOMAIN">
        <Description>
          <TranslatedText xml:lang="en">Domain Abbreviation</TranslatedText>
        </Description>
        <def:Origin Type="Other"/>
      </ItemDef>
      <ItemDef OID="IT.TX.SET" Name="SET" DataType="text" Length="37" SASFieldName="SET">
        <Description>
          <TranslatedText xml:lang="en">Set Description</TranslatedText>
        </Description>
        <CodeListRef CodeListOID="CL.SET"/>
        <def:Origin Type="Other"/>
      </ItemDef>
      <ItemDef OID="IT.TX.SETCD" Name="SETCD" DataType="text" Length="3" SASFieldName="SETCD">
        <Description>
          <TranslatedText xml:lang="en">Set Code</TranslatedText>
        </Description>
        <CodeListRef CodeListOID="CL.SETCD"/>
        <def:Origin Type="Other"/>
      </ItemDef>
      <ItemDef OID="IT.TX.STUDYID" Name="STUDYID" DataType="text" Length="10" SASFieldName="STUDYID">
        <Description>
          <TranslatedText xml:lang="en">Study Identifier</TranslatedText>
        </Description>
        <def:Origin Type="Other"/>
      </ItemDef>
      <ItemDef OID="IT.TX.TXPARM" Name="TXPARM" DataType="text" Length="33" SASFieldName="TXPARM">
        <Description>
          <TranslatedText xml:lang="en">Trial Set Parameter</TranslatedText>
        </Description>
        <CodeListRef CodeListOID="CL.STSPRM"/>
        <def:Origin Type="Other"/>
      </ItemDef>
      <ItemDef OID="IT.TX.TXPARMCD" Name="TXPARMCD" DataType="text" Length="8" SASFieldName="TXPARMCD">
        <Description>
          <TranslatedText xml:lang="en">Trial Set Parameter Short Name</TranslatedText>
        </Description>
        <CodeListRef CodeListOID="CL.STSPRMCD"/>
        <def:Origin Type="Other"/>
      </ItemDef>
      <ItemDef OID="IT.TX.TXSEQ" Name="TXSEQ" DataType="integer" Length="2" SASFieldName="TXSEQ" def:CommentOID="COM.TX.TXSEQ">
        <Description>
          <TranslatedText xml:lang="en">Sequence Number</TranslatedText>
        </Description>
        <def:Origin Type="Other"/>
      </ItemDef>
      <ItemDef OID="IT.TX.TXVAL" Name="TXVAL" DataType="text" Length="37" SASFieldName="TXVAL">
        <Description>
          <TranslatedText xml:lang="en">Trial Set Parameter Value</TranslatedText>
        </Description>
        <def:Origin Type="Other"/>
        <def:ValueListRef ValueListOID="VL.TX.TXVAL"/>
      </ItemDef>
      <ItemDef OID="IT.BW.BWORRES.WC.BW.BWORRES.00001" Name="_318" DataType="integer" Length="3" SASFieldName="_318">
        <Description>
          <TranslatedText xml:lang="en">Body Weight</TranslatedText>
        </Description>
        <def:Origin Type="Collected"/>
      </ItemDef>
      <ItemDef OID="IT.BW.BWORRES.WC.BW.BWORRES.00002" Name="BW" DataType="integer" Length="3" SASFieldName="BW">
        <Description>
          <TranslatedText xml:lang="en">Body Weight</TranslatedText>
        </Description>
        <def:Origin Type="Collected"/>
      </ItemDef>
      <ItemDef OID="IT.BW.BWORRES.WC.BW.BWORRES.00003" Name="TERMBW" DataType="integer" Length="3" SASFieldName="TERMBW">
        <Description>
          <TranslatedText xml:lang="en">Terminal Body Weight</TranslatedText>
        </Description>
        <def:Origin Type="Collected"/>
      </ItemDef>
      <ItemDef OID="IT.DP.DPORRES.WC.DP.DPORRES.00004" Name="PREPUTSE" DataType="text" Length="1" SASFieldName="PREPUTSE">
        <Description>
          <TranslatedText xml:lang="en">Preputial Separation</TranslatedText>
        </Description>
        <def:Origin Type="Collected"/>
      </ItemDef>
      <ItemDef OID="IT.DP.DPORRES.WC.DP.DPORRES.00005" Name="VAGOPEN" DataType="text" Length="1" SASFieldName="VAGOPEN">
        <Description>
          <TranslatedText xml:lang="en">Vaginal Opening</TranslatedText>
        </Description>
        <def:Origin Type="Collected"/>
      </ItemDef>
      <ItemDef OID="IT.DP.DPSTRESC.WC.DP.DPSTRESC.00006" Name="PREPUTSE" DataType="text" Length="4" SASFieldName="PREPUTSE">
        <Description>
          <TranslatedText xml:lang="en">Preputial Separation</TranslatedText>
        </Description>
        <def:Origin Type="Derived"/>
      </ItemDef>
      <ItemDef OID="IT.DP.DPSTRESC.WC.DP.DPSTRESC.00007" Name="VAGOPEN" DataType="text" Length="4" SASFieldName="VAGOPEN">
        <Description>
          <TranslatedText xml:lang="en">Vaginal Opening</TranslatedText>
        </Description>
        <def:Origin Type="Derived"/>
      </ItemDef>
      <ItemDef OID="IT.FW.FWORRES.WC.FW.FWORRES.00008" Name="FC" DataType="integer" Length="3" SASFieldName="FC">
        <Description>
          <TranslatedText xml:lang="en">Food Consumption</TranslatedText>
        </Description>
        <def:Origin Type="Collected"/>
      </ItemDef>
      <ItemDef OID="IT.FW.FWSTRESC.WC.FW.FWSTRESC.00009" Name="FC" DataType="integer" Length="2" SASFieldName="FC">
        <Description>
          <TranslatedText xml:lang="en">Food Consumption</TranslatedText>
        </Description>
        <def:Origin Type="Derived"/>
      </ItemDef>
      <ItemDef OID="IT.LB.LBORRES.WC.LB.LBORRES.00010" Name="ALB" DataType="float" Length="3" SignificantDigits="1" SASFieldName="ALB" def:DisplayFormat="3.1">
        <Description>
          <TranslatedText xml:lang="en">Albumin</TranslatedText>
        </Description>
        <def:Origin Type="Collected"/>
      </ItemDef>
      <ItemDef OID="IT.LB.LBORRES.WC.LB.LBORRES.00011" Name="ALBGLOB" DataType="float" Length="4" SignificantDigits="2" SASFieldName="ALBGLOB" def:DisplayFormat="4.2">
        <Description>
