<?xml version="1.0" encoding="UTF-8"?>

<ODM xmlns="http://www.cdisc.org/ns/odm/v1.3" xmlns:xs="http://www.w3.org/2001/XMLSchema-instance" xmlns:nciodm="http://ncicb.nci.nih.gov/xml/odm/EVS/CDISC" xs:schemaLocation="http://www.nci.nih.gov/EVS/CDISC ../schema/controlledterminology1-0-0.xsd" FileType="Snapshot" FileOID="CDISC_CT.QS-FT.2014-06-27" Granularity="Metadata" CreationDateTime="2014-06-23T16:20:14" AsOfDateTime="2014-06-27T00:00:00" ODMVersion="1.3.1" Originator="CDISC XML Technologies Team (Terminology2ODM converter)" SourceSystem="NCI Thesaurus" SourceSystemVersion="2014-06-27">
    <Study OID="CDISC_CT.QS-FT.2014-06-27">
        <GlobalVariables>
            <StudyName>CDISC QS-FT Controlled Terminology</StudyName>
            <StudyDescription>CDISC QS-FT Controlled Terminology, 2014-06-27</StudyDescription>
            <ProtocolName>CDISC QS-FT Controlled Terminology</ProtocolName>
        </GlobalVariables>
        <MetaDataVersion OID="CDISC_CT_MetaDataVersion.QS-FT.2014-06-27" Name="CDISC QS-FT Controlled Terminology" Description="CDISC QS-FT Controlled Terminology, 2014-06-27">
            <CodeList OID="CL.C115304.FTCAT" Name="Category of Functional Test" DataType="text" nciodm:ExtCodeID="C115304" nciodm:CodeListExtensible="Yes">
                <Description>
                    <TranslatedText xml:lang="en">A grouping of observations within the Functional Test domain.</TranslatedText>
                </Description>
                <EnumeratedItem CodedValue="HAUSER AMBULATION INDEX" nciodm:ExtCodeID="C115790">
                    <nciodm:CDISCSynonym>HAI01</nciodm:CDISCSynonym>
                    <nciodm:CDISCDefinition>Hauser Ambulation Index (AI) (Hauser SL, Dawson DM, Lehrich JR, Beal MF, Kevy SV, Propper RD, Mills JA, Weiner HL. Intensive immunosuppression in progressive multiple sclerosis. A randomized, three-arm study of high-dose intravenous cyclophosphamide, plasma exchange, and ACTH. N Engl J Med. 1983 Jan 27;308(4):173-80).</nciodm:CDISCDefinition>
                    <nciodm:PreferredTerm>Hauser Ambulation Index Functional Test</nciodm:PreferredTerm>
                </EnumeratedItem>
                <EnumeratedItem CodedValue="NHPT" nciodm:ExtCodeID="C115791">
                    <nciodm:CDISCSynonym>NHPT01</nciodm:CDISCSynonym>
                    <nciodm:CDISCDefinition>Nine-Hole Peg Test (NHPT) (Copyright 2001, National Multiple Sclerosis Society).</nciodm:CDISCDefinition>
                    <nciodm:PreferredTerm>Nine-Hole Peg Functional Test</nciodm:PreferredTerm>
                </EnumeratedItem>
                <EnumeratedItem CodedValue="PASAT" nciodm:ExtCodeID="C115792">
                    <nciodm:CDISCSynonym>PASAT1</nciodm:CDISCSynonym>
                    <nciodm:CDISCDefinition>Paced Auditory Serial Addition Test (PASAT) (Copyright 2001, National Multiple Sclerosis Society).</nciodm:CDISCDefinition>
                    <nciodm:PreferredTerm>Paced Auditory Serial Addition Functional Test</nciodm:PreferredTerm>
                </EnumeratedItem>
                <EnumeratedItem CodedValue="SDMT" nciodm:ExtCodeID="C115793">
                    <nciodm:CDISCSynonym>SDMT01</nciodm:CDISCSynonym>
                    <nciodm:CDISCDefinition>Symbol Digit Modalities Test (SDMT) (Copyright 1973 by Western Psychological Services).</nciodm:CDISCDefinition>
                    <nciodm:PreferredTerm>Symbol Digit Modalities Functional Test</nciodm:PreferredTerm>
                </EnumeratedItem>
                <EnumeratedItem CodedValue="SIX MINUTE WALK" nciodm:ExtCodeID="C115789">
                    <nciodm:CDISCSynonym>SIXMW1</nciodm:CDISCSynonym>
                    <nciodm:CDISCDefinition>6 Minute Walk Test (6MWT) (Goldman MD, Marrie RA, Cohen JA. Evaluation of the six-minute walk in multiple sclerosis subjects and healthy controls. Multiple Sclerosis 2008; 14: 383-390).</nciodm:CDISCDefinition>
                    <nciodm:PreferredTerm>6 Minute Walk Functional Test</nciodm:PreferredTerm>
                </EnumeratedItem>
                <EnumeratedItem CodedValue="T25FW" nciodm:ExtCodeID="C115794">
                    <nciodm:CDISCSynonym>T25FW1</nciodm:CDISCSynonym>
                    <nciodm:CDISCDefinition>Timed 25-Foot Walk (T25FW) (Copyright 2001, National Multiple Sclerosis Society).</nciodm:CDISCDefinition>
                    <nciodm:PreferredTerm>Timed 25-Foot Walk Functional Test</nciodm:PreferredTerm>
                </EnumeratedItem>
                <EnumeratedItem CodedValue="TUG" nciodm:ExtCodeID="C115795">
                    <nciodm:CDISCSynonym>TUG01</nciodm:CDISCSynonym>
                    <nciodm:CDISCDefinition>Timed Up and Go (TUG) (Podsiadlo D, Richardson S. The Timed 'Up &amp; Go': a test of basic functional mobility for frail elderly persons. J Am Geriatr Soc. 1991; 39:142-148).</nciodm:CDISCDefinition>
                    <nciodm:PreferredTerm>Timed Up and Go Functional Test</nciodm:PreferredTerm>
                </EnumeratedItem>
                <nciodm:CDISCSubmissionValue>FTCAT</nciodm:CDISCSubmissionValue>
                <nciodm:CDISCSynonym>Category of Functional Test</nciodm:CDISCSynonym>
                <nciodm:PreferredTerm>CDISC Functional Test Category Terminology</nciodm:PreferredTerm>
            </CodeList>
            <CodeList OID="CL.C100129.QSCAT" Name="Category of Questionnaire" DataType="text" nciodm:ExtCodeID="C100129" nciodm:CodeListExtensible="Yes">
                <Description>
                    <TranslatedText xml:lang="en">A grouping of observations within the Questionnaire domain.</TranslatedText>
                </Description>
                <EnumeratedItem CodedValue="ADAS-COG" nciodm:ExtCodeID="C100762">
                    <nciodm:CDISCSynonym>ADC</nciodm:CDISCSynonym>
                    <nciodm:CDISCDefinition>The CDISC version of the Alzheimer's Disease Assessment Scale-Cognitive (ADAS-Cog CDISC Version) containing 15 summary-level tests. This version is based on combining the total pool of ADAS-Cog tests that were observed during a review of multiple case report forms administered in clinical trials of Alzheimer's disease, as well as the CRF administered in the Alzheimer's Disease Neuroimaging Initiative (ADNI) observational study. (Modified from Mohs RC, Rosen WG, Davis KL. The Alzheimer's disease assessment scale: an instrument for assessing treatment efficacy. Psychopharmacol Bull 1983;19(3):448-450. Rosen WG, Mohs RC, Davis KL. A new rating scale for Alzheimer's disease. Am J Psychiatry 1984;141(11):1356-1364. Mohs RC, Knopman D, Petersen RC et al. Development of cognitive instruments for use in clinical trials of antidementia drugs: additions to the Alzheimer's Disease Assessment Scale that broaden its scope. The Alzheimer's Disease Cooperative Study. Alzheimer Dis Assoc Disord 1997;11 Suppl 2:S13-S21. Wouters H, van Gool WA, Schmand B, Lindeboom R. Revising the ADAS-cog for a more accurate assessment of cognitive impairment. Alzheimer Dis Assoc Disord 2008;22(3):236-244.).</nciodm:CDISCDefinition>
                    <nciodm:PreferredTerm>Alzheimer's Disease Assessment Scale-Cognitive CDISC Version Questionnaire</nciodm:PreferredTerm>
                </EnumeratedItem>
                <EnumeratedItem CodedValue="ADCS-ADL" nciodm:ExtCodeID="C105166">
                    <nciodm:CDISCSynonym>ADL01</nciodm:CDISCSynonym>
                    <nciodm:CDISCDefinition>Alzheimer's Disease Cooperative Study-Activities of Daily Living Inventory (ADCS-ADL) (Galasko, D., Bennett, D., Sano, M., Ernesto, C., Thomas, R., Grundman, M., Ferris, S., and the ADCS. "An Inventory to Assess Activities of Daily Living for Clinical Trials in Alzheimer's Disease." Alzheimer's Disease and Associated Disorders, 1997. Volume 11(2): S33-S39).</nciodm:CDISCDefinition>
                    <nciodm:PreferredTerm>Alzheimer's Disease Cooperative Study Activities of Daily Living Inventory Questionnaire</nciodm:PreferredTerm>
                </EnumeratedItem>
                <EnumeratedItem CodedValue="ADCS-ADL MCI" nciodm:ExtCodeID="C106888">
                    <nciodm:CDISCSynonym>ADL03</nciodm:CDISCSynonym>
                    <nciodm:CDISCDefinition>Alzheimer's Disease Cooperative Study-Activities of Daily Living Inventory (ADCS-ADL), MCI Version (Galasko, D., Bennett, D., Sano, M., Ernesto, C., Thomas, R., Grundman, M., Ferris, S., and the ADCS. An Inventory to Assess Activities of Daily Living for Clinical Trials in Alzheimer's Disease. Alzheimer's Disease and Associated Disorders, 1997. Volume 11(2): S33-S39).</nciodm:CDISCDefinition>
                    <nciodm:PreferredTerm>Alzheimer's Disease Cooperative Study-Activities of Daily Living Inventory Mild Cognitive Impairment Questionnaire</nciodm:PreferredTerm>
                </EnumeratedItem>
                <EnumeratedItem CodedValue="ADCS-ADL SEVERE" nciodm:ExtCodeID="C106889">
                    <nciodm:CDISCSynonym>ADL02</nciodm:CDISCSynonym>
                    <nciodm:CDISCDefinition>Alzheimer's Disease Cooperative Study-Activities of Daily Living Inventory (ADCS-ADL), Severe Dementia Version (Galasko, D., Bennett, D., Sano, M., Ernesto, C., Thomas, R., Grundman, M., Ferris, S., and the ADCS. An Inventory to Assess Activities of Daily Living for Clinical Trials in Alzheimer's Disease. Alzheimer's Disease and Associated Disorders, 1997. Volume 11(2): S33-S39).</nciodm:CDISCDefinition>
                    <nciodm:PreferredTerm>Alzheimer's Disease Cooperative Study-Activities of Daily Living Inventory Severe Dementia Questionnaire</nciodm:PreferredTerm>
                </EnumeratedItem>
                <EnumeratedItem CodedValue="ADCS-CGIC" nciodm:ExtCodeID="C103515">
                    <nciodm:CDISCSynonym>ACGC01</nciodm:CDISCSynonym>
                    <nciodm:CDISCDefinition>Alzheimer's Disease Cooperative Study-Clinical Global Impression of Change (ADCS-CGIC) (Schneider LS, Olin JT, Doody RS, Clark CM, Morris JC, Reisberg B, Schmitt FA, Grundman M, Thomas RG, Ferris SH, and the Alzheimer's Disease Cooperative Study. Validity and Reliability of the Alzheimer's Disease Cooperative Study-Clinical Global Impression of Change. Alzheimer Disease and Associated Disorders. 1997; 11(2):S22-S32).</nciodm:CDISCDefinition>
                    <nciodm:PreferredTerm>Alzheimer's Disease Cooperative Study-Clinical Global Impression of Change Questionnaire</nciodm:PreferredTerm>
                </EnumeratedItem>
                <EnumeratedItem CodedValue="AIMS" nciodm:ExtCodeID="C102111">
                    <nciodm:CDISCSynonym>AIMS01</nciodm:CDISCSynonym>
                    <nciodm:CDISCDefinition>Abnormal Involuntary Movement Scale (AIMS) (Guy W. Ed. ECDEU Assessment Manual for Psychopharmacology. Rockville MD: US Dept of Health, Education and Welfare. 1976, Publication No. (ADM) 76-338).</nciodm:CDISCDefinition>
                    <nciodm:PreferredTerm>Abnormal Involuntary Movement Scale Questionnaire</nciodm:PreferredTerm>
                </EnumeratedItem>
                <EnumeratedItem CodedValue="AQ20" nciodm:ExtCodeID="C112518">
                    <nciodm:CDISCSynonym>AQ01</nciodm:CDISCSynonym>
                    <nciodm:CDISCDefinition>Airway Questionnaire 20 (AQ20) (Barley EA, Quirk FH, Jones PW. Asthma health status in clinical practice: validity of a new short and simple instrument. Respir Med 1998; 92:1207-14. Copyright Reserved P.W. Jones, PhD FRCP).</nciodm:CDISCDefinition>
                    <nciodm:PreferredTerm>Airway Questionnaire 20</nciodm:PreferredTerm>
                </EnumeratedItem>
                <EnumeratedItem CodedValue="AVLT" nciodm:ExtCodeID="C102112">
                    <nciodm:CDISCSynonym>AVL01</nciodm:CDISCSynonym>
                    <nciodm:CDISCDefinition>The Alzheimer's Disease Neuroimaging Initiative's (ADNI) version of the Auditory Verbal Learning Test (AVLT Version A) modified from Rey A. L'examen clinique en psychologie [Clinical tests in psychology]. Paris: Presses Universitaires de France; 1964.</nciodm:CDISCDefinition>
                    <nciodm:PreferredTerm>Alzheimer's Disease Neuroimaging Initiative Auditory Verbal Learning Test Questionnaire</nciodm:PreferredTerm>
                </EnumeratedItem>
                <EnumeratedItem CodedValue="BARS" nciodm:ExtCodeID="C102113">
                    <nciodm:CDISCSynonym>BARS01</nciodm:CDISCSynonym>
                    <nciodm:CDISCDefinition>Barnes Akathisia Rating Scale (BARS) (Barnes TR: A Rating Scale for Drug-Induced Akathisia. British Journal of Psychiatry 154:672-676, 1989).</nciodm:CDISCDefinition>
                    <nciodm:PreferredTerm>Barnes Akathisia Rating Scale Questionnaire</nciodm:PreferredTerm>
                </EnumeratedItem>
                <EnumeratedItem CodedValue="BDI" nciodm:ExtCodeID="C106693">
                    <nciodm:CDISCSynonym>BDI01</nciodm:CDISCSynonym>
                    <nciodm:CDISCDefinition>Baseline Dyspnea Index (BDI) (Mahler DA, Weinberg DH, Wells CK, Feinstein AR. The measurement of dyspnea. Contents, interobserver agreement, and physiologic correlates of two new clinical indexes. Chest 1984, 85: 751-758).</nciodm:CDISCDefinition>
                    <nciodm:PreferredTerm>Baseline Dyspnea Index Questionnaire</nciodm:PreferredTerm>
                </EnumeratedItem>
                <EnumeratedItem CodedValue="BLCS" nciodm:ExtCodeID="C113874">
                    <nciodm:CDISCSynonym>BLCS01</nciodm:CDISCSynonym>
                    <nciodm:CDISCDefinition>Bladder Control Scale (BLCS) (1997 by the National Multiple Sclerosis Society. All rights reserved).</nciodm:CDISCDefinition>
                    <nciodm:PreferredTerm>Bladder Control Scale Questionnaire</nciodm:PreferredTerm>
                </EnumeratedItem>
                <EnumeratedItem CodedValue="BORG CR10" nciodm:ExtCodeID="C113872">
                    <nciodm:CDISCSynonym>BCR101</nciodm:CDISCSynonym>
                    <nciodm:CDISCDefinition>Borg CR10 Scale (BORG CR10) (Borg CR10 Scale. Copyright Gunnar Borg, 1981, 1982, 1998).</nciodm:CDISCDefinition>
                    <nciodm:PreferredTerm>Borg Category-Ratio 10 Scale Questionnaire</nciodm:PreferredTerm>
                </EnumeratedItem>
                <EnumeratedItem CodedValue="BPI" nciodm:ExtCodeID="C100759">
                    <nciodm:CDISCSynonym>BPI1</nciodm:CDISCSynonym>
                    <nciodm:CDISCDefinition>Brief Pain Inventory (BPI) (copyright 1991 Charles S. Cleeland, PhD, Pain Research Group, All Right Reserved).</nciodm:CDISCDefinition>
                    <nciodm:PreferredTerm>Brief Pain Inventory Questionnaire</nciodm:PreferredTerm>
                </EnumeratedItem>
                <EnumeratedItem CodedValue="BPI SHORT FORM" nciodm:ExtCodeID="C100760">
                    <nciodm:CDISCSynonym>BPI2</nciodm:CDISCSynonym>
                    <nciodm:CDISCDefinition>Brief Pain Inventory Short Form (BPI2) (copyright 1991 Charles S. Cleeland, PhD, Pain Research Group, All Right Reserved).</nciodm:CDISCDefinition>
                    <nciodm:PreferredTerm>Brief Pain Inventory Short Form Questionnaire</nciodm:PreferredTerm>
                </EnumeratedItem>
                <EnumeratedItem CodedValue="BPRS-A" nciodm:ExtCodeID="C100761">
                    <nciodm:CDISCSynonym>BPR01</nciodm:CDISCSynonym>
                    <nciodm:CDISCDefinition>Brief Psychiatric Rating Scale - Anchored (BPRS-A) (Woerner MB, Mannuzza S, and Kane JM. Anchoring the BPRS: An Aid to Improved Reliability. Psychopharmacology Bulletin 1988; 24(1):112-117).</nciodm:CDISCDefinition>
                    <nciodm:PreferredTerm>Brief Psychiatric Rating Scale A Questionnaire</nciodm:PreferredTerm>
                </EnumeratedItem>
                <EnumeratedItem CodedValue="BWCS" nciodm:ExtCodeID="C113875">
                    <nciodm:CDISCSynonym>BWCS01</nciodm:CDISCSynonym>
                    <nciodm:CDISCDefinition>Bowel Control Scale (BWCS) (1997 by the National Multiple Sclerosis Society. All rights reserved).</nciodm:CDISCDefinition>
                    <nciodm:PreferredTerm>Bowel Control Scale Questionnaire</nciodm:PreferredTerm>
                </EnumeratedItem>
                <EnumeratedItem CodedValue="CDR" nciodm:ExtCodeID="C102114">
                    <nciodm:CDISCSynonym>CDR01</nciodm:CDISCSynonym>
                    <nciodm:CDISCDefinition>Clinical Dementia Rating (CDR) (Morris, JC. Clinical Dementia Rating: A reliable and valid diagnostic and staging measure for dementia of the Alzheimer type. International Psychogeriatrics 1997: 9, Suppl. 1, 173-176).</nciodm:CDISCDefinition>
                    <nciodm:PreferredTerm>Clinical Dementia Rating Questionnaire</nciodm:PreferredTerm>
                </EnumeratedItem>
                <EnumeratedItem CodedValue="CGI" nciodm:ExtCodeID="C100763">
                    <nciodm:CDISCSynonym>CGI01</nciodm:CDISCSynonym>
                    <nciodm:CDISCDefinition>Clinical Global Impression (CGI) (Guy W: ECDEU Assessment Manual for Psychopharmacology. Rockville, MD: U.S. Department of Health, Education, and Welfare; 1976).</nciodm:CDISCDefinition>
                    <nciodm:PreferredTerm>Clinical Global Impression Questionnaire</nciodm:PreferredTerm>
                </EnumeratedItem>
                <EnumeratedItem CodedValue="COMM" nciodm:ExtCodeID="C100764">
                    <nciodm:CDISCSynonym>COMM1</nciodm:CDISCSynonym>
                    <nciodm:CDISCDefinition>Current Opioid Misuse Measure (COMM) (copyright 2010 Inflexxion, Inc., All rights reserved).</nciodm:CDISCDefinition>
                    <nciodm:PreferredTerm>Current Opioid Misuse Measure Questionnaire</nciodm:PreferredTerm>
                </EnumeratedItem>
                <EnumeratedItem CodedValue="COWS" nciodm:ExtCodeID="C102115">
                    <nciodm:CDISCSynonym>COWS1</nciodm:CDISCSynonym>
                    <nciodm:CDISCDefinition>The Clinical Opiate Withdrawal Scale (COWS) (Wesson DR and Ling W. The Clinical Opiate Withdrawal Scale (COWS). J Psychoactive Drugs 2003;35(2):253-259).</nciodm:CDISCDefinition>
                    <nciodm:PreferredTerm>Clinical Opiate Withdrawal Scale Questionnaire</nciodm:PreferredTerm>
                </EnumeratedItem>
                <EnumeratedItem CodedValue="C-SSRS ALREADY ENROLLED SUBJECTS" nciodm:ExtCodeID="C106695">
                    <nciodm:CDISCSynonym>CSS05</nciodm:CDISCSynonym>
                    <nciodm:CDISCDefinition>Columbia-Suicidality Severity Rating Scale (C-SSRS) Already Enrolled Subjects Version 1/14/2009 (Posner, K.; Brent, D.; Lucas, C.; Gould, M.; Stanley, B.; Brown, G.; Fisher, P.; Zelazny, J.; Burke, A.; Oquendo, M.; Mann, J.; copyright 2008 The Research Foundation for Mental Hygiene, Inc.).</nciodm:CDISCDefinition>
                    <nciodm:PreferredTerm>Columbia-Suicide Severity Rating Scale Already Enrolled Subjects Questionnaire</nciodm:PreferredTerm>
                </EnumeratedItem>
                <EnumeratedItem CodedValue="C-SSRS BASELINE" nciodm:ExtCodeID="C100765">
                    <nciodm:CDISCSynonym>CSS01</nciodm:CDISCSynonym>
                    <nciodm:CDISCDefinition>Columbia-Suicidality Severity Rating Scale (C-SSRS) Baseline Version 2009-01-14 (Posner, K.; Brent, D.; Lucas, C.; Gould, M.; Stanley, B.; Brown, G.; Fisher, P.; Zelazny, J.; Burke, A.; Oquendo, M.; Mann, J.; copyright 2008 The Research Foundation for Mental Hygiene, Inc.).</nciodm:CDISCDefinition>
                    <nciodm:PreferredTerm>Columbia-Suicidality Severity Rating Scale Baseline Questionnaire</nciodm:PreferredTerm>
                </EnumeratedItem>
                <EnumeratedItem CodedValue="C-SSRS BASELINE/SCREENING VERSION" nciodm:ExtCodeID="C106696">
                    <nciodm:CDISCSynonym>CSS04</nciodm:CDISCSynonym>
                    <nciodm:CDISCDefinition>Columbia-Suicidality Severity Rating Scale (C-SSRS) Baseline/Screening Version 1/14/2009 (Posner, K.; Brent, D.; Lucas, C.; Gould, M.; Stanley, B.; Brown, G.; Fisher, P.; Zelazny, J.; Burke, A.; Oquendo, M.; Mann, J.; copyright 2008 The Research Foundation for Mental Hygiene, Inc.).</nciodm:CDISCDefinition>
                    <nciodm:PreferredTerm>Columbia-Suicide Severity Rating Scale Baseline/Screening Version Questionnaire</nciodm:PreferredTerm>
                </EnumeratedItem>
                <EnumeratedItem CodedValue="C-SSRS BASELINE/SCREENING VERSION PHASE 1 STUDY" nciodm:ExtCodeID="C105164">
                    <nciodm:CDISCSynonym>CSS03</nciodm:CDISCSynonym>
                    <nciodm:CDISCDefinition>Columbia-Suicidality Severity Rating Scale (C-SSRS) Baseline/Screening Version Phase 1 Study Version 1/14/2009 (Posner, K.; Brent, D.; Lucas, C.; Gould, M.; Stanley, B.; Brown, G.; Fisher, P.; Zelazny, J.; Burke, A.; Oquendo, M.; Mann, J.; copyright 2008 The Research Foundation for Mental Hygiene, Inc.).</nciodm:CDISCDefinition>
                    <nciodm:PreferredTerm>Columbia-Suicidality Severity Rating Scale Baseline/Screening Version Phase 1 Study 1/14/09 Questionnaire</nciodm:PreferredTerm>
                </EnumeratedItem>
                <EnumeratedItem CodedValue="C-SSRS CHILDREN'S BASELINE" nciodm:ExtCodeID="C111377">
                    <nciodm:CDISCSynonym>CSS06</nciodm:CDISCSynonym>
                    <nciodm:CDISCDefinition>Columbia-Suicidality Severity Rating Scale (C-SSRS) Children's Baseline Version 6/23/2010 (Posner, K.; Brent, D.; Lucas, C.; Gould, M.; Stanley, B.; Brown, G.; Fisher, P.; Zelazny, J.; Burke, A.; Oquendo, M.; Mann, J.; copyright 2008 The Research Foundation for Mental Hygiene, Inc.).</nciodm:CDISCDefinition>
                    <nciodm:PreferredTerm>Columbia-Suicide Severity Rating Scale Children's Baseline Questionnaire</nciodm:PreferredTerm>
                </EnumeratedItem>
                <EnumeratedItem CodedValue="C-SSRS CHILDREN'S BASELINE/SCREENING" nciodm:ExtCodeID="C111378">
                    <nciodm:CDISCSynonym>CSS07</nciodm:CDISCSynonym>
                    <nciodm:CDISCDefinition>Columbia-Suicidality Severity Rating Scale (C-SSRS) Children's Baseline/Screening Version 6/23/2010 (Posner, K.; Brent, D.; Lucas, C.; Gould, M.; Stanley, B.; Brown, G.; Fisher, P.; Zelazny, J.; Burke, A.; Oquendo, M.; Mann, J.; copyright 2008 The Research Foundation for Mental Hygiene, Inc.).</nciodm:CDISCDefinition>
                    <nciodm:PreferredTerm>Columbia-Suicide Severity Rating Scale Children's Baseline/Screening Questionnaire</nciodm:PreferredTerm>
                </EnumeratedItem>
                <EnumeratedItem CodedValue="C-SSRS CHILDREN'S SINCE LAST VIST" nciodm:ExtCodeID="C111379">
                    <nciodm:CDISCSynonym>CSS08</nciodm:CDISCSynonym>
                    <nciodm:CDISCDefinition>Columbia-Suicidality Severity Rating Scale (C-SSRS) Children's Since Last Visit Version 6/23/2010 (Posner, K.; Brent, D.; Lucas, C.; Gould, M.; Stanley, B.; Brown, G.; Fisher, P.; Zelazny, J.; Burke, A.; Oquendo, M.; Mann, J.; copyright 2008 The Research Foundation for Mental Hygiene, Inc.).</nciodm:CDISCDefinition>
                    <nciodm:PreferredTerm>Columbia-Suicide Severity Rating Scale Children's Since Last Visit Questionnaire</nciodm:PreferredTerm>
                </EnumeratedItem>
                <EnumeratedItem CodedValue="C-SSRS PEDIATRIC/COGNITIVELY IMPAIRED LIFETIME/RECENT" nciodm:ExtCodeID="C113873">
                    <nciodm:CDISCSynonym>CSS10</nciodm:CDISCSynonym>
                    <nciodm:CDISCDefinition>Columbia-Suicidality Severity Rating Scale (C-SSRS) Pediatric/Cognitively Impaired Lifetime/Recent Version 6/23/2010 (Posner, K.; Brent, D.; Lucas, C.; Gould, M.; Stanley, B.; Brown, G.; Fisher, P.; Zelazny, J.; Burke, A.; Oquendo, M.; Mann, J.; copyright 2008 The Research Foundation for Mental Hygiene, Inc.).</nciodm:CDISCDefinition>
                    <nciodm:PreferredTerm>Columbia-Suicide Severity Rating Scale Pediatric/Cognitively Impaired Lifetime/Recent Questionnaire</nciodm:PreferredTerm>
                </EnumeratedItem>
                <EnumeratedItem CodedValue="C-SSRS SCREENING" nciodm:ExtCodeID="C111380">
                    <nciodm:CDISCSynonym>CSS09</nciodm:CDISCSynonym>
                    <nciodm:CDISCDefinition>Columbia-Suicidality Severity Rating Scale (C-SSRS) Screening Version 1/14/2009 (Posner, K.; Brent, D.; Lucas, C.; Gould, M.; Stanley, B.; Brown, G.; Fisher, P.; Zelazny, J.; Burke, A.; Oquendo, M.; Mann, J.; copyright 2008 The Research Foundation for Mental Hygiene, Inc.).</nciodm:CDISCDefinition>
                    <nciodm:PreferredTerm>Columbia-Suicide Severity Rating Scale Screening Questionnaire</nciodm:PreferredTerm>
                </EnumeratedItem>
                <EnumeratedItem CodedValue="C-SSRS SINCE LAST VISIT" nciodm:ExtCodeID="C103516">
                    <nciodm:CDISCSynonym>CSS02</nciodm:CDISCSynonym>
                    <nciodm:CDISCDefinition>Columbia-Suicidality Severity Rating Scale (C-SSRS) Since Last Visit Version 1/14/2009 (Posner, K.; Brent, D.; Lucas, C.; Gould, M.; Stanley, B.; Brown, G.; Fisher, P.; Zelazny, J.; Burke, A.; Oquendo, M.; Mann, J.; copyright 2008 The Research Foundation for Mental Hygiene, Inc.).</nciodm:CDISCDefinition>
                    <nciodm:PreferredTerm>Columbia-Suicidality Severity Rating Scale Since Last Visit Questionnaire</nciodm:PreferredTerm>
                </EnumeratedItem>
                <EnumeratedItem CodedValue="DAD" nciodm:ExtCodeID="C105165">
                    <nciodm:CDISCSynonym>DAD01</nciodm:CDISCSynonym>
                    <nciodm:CDISCDefinition>Disability Assessment for Dementia (DAD) (copyright 1994 by L. Gauthier I. Gelinas. All rights reserved.).</nciodm:CDISCDefinition>
                    <nciodm:PreferredTerm>Disability Assessment for Dementia Questionnaire</nciodm:PreferredTerm>
                </EnumeratedItem>
                <EnumeratedItem CodedValue="DISEASE STEPS" nciodm:ExtCodeID="C112519">
                    <nciodm:CDISCSynonym>DS01</nciodm:CDISCSynonym>
                    <nciodm:CDISCDefinition>Disease Steps (DS) (Hohol MJ, Orav EJ, Weiner HL. Disease steps in multiple sclerosis: a simple approach to evaluate disease progression. Neurology. 1995 Feb;45(2):251-5).</nciodm:CDISCDefinition>
                    <nciodm:PreferredTerm>Disease Steps Questionnaire</nciodm:PreferredTerm>
                </EnumeratedItem>
                <EnumeratedItem CodedValue="DRS" nciodm:ExtCodeID="C115796">
                    <nciodm:CDISCSynonym>DRS01</nciodm:CDISCSynonym>
                    <nciodm:CDISCDefinition>Disability Rating Scale (DRS) (Rappaport et al. (1982) Disability Rating Scale for Severe Head Trauma Patients: Coma to Community. Archives of Physical Medicine and Rehabilitation, 63:118-123).</nciodm:CDISCDefinition>
                    <nciodm:PreferredTerm>Disability Rating Scale Questionnaire</nciodm:PreferredTerm>
                </EnumeratedItem>
                <EnumeratedItem CodedValue="ECOG" nciodm:ExtCodeID="C102116">
                    <nciodm:CDISCSynonym>ECOG1</nciodm:CDISCSynonym>
                    <nciodm:CDISCDefinition>Eastern Cooperative Oncology Group (ECOG) Performance Status (Oken MM, Creech RH, Tormey DC, Horton J, Davis TE, McFadden ET, Carbone PP. Toxicity and response criteria of the Eastern Cooperative Oncology Group. Am J Clin Oncol. 1982 Dec;5(6):649-55).</nciodm:CDISCDefinition>
                    <nciodm:PreferredTerm>Eastern Cooperative Oncology Group Performance Status Questionnaire</nciodm:PreferredTerm>
                </EnumeratedItem>
                <EnumeratedItem CodedValue="EDSS" nciodm:ExtCodeID="C112520">
                    <nciodm:CDISCSynonym>EDSS01</nciodm:CDISCSynonym>
                    <nciodm:CDISCDefinition>Kurtzke Expanded Disability Status Scale (EDSS) (Kurtzke JF. Rating neurologic impairment in multiple sclerosis: an expanded disability status scale (EDSS). Neurology. 1983 Nov;33(11):1444-52).</nciodm:CDISCDefinition>
                    <nciodm:PreferredTerm>Kurtzke Expanded Disability Status Scale Questionnaire</nciodm:PreferredTerm>
                </EnumeratedItem>
                <EnumeratedItem CodedValue="EQ-5D-3L" nciodm:ExtCodeID="C66957">
                    <nciodm:CDISCSynonym>EQ5D01</nciodm:CDISCSynonym>
                    <nciodm:CDISCDefinition>European Quality of Life Five Dimension Three Level Scale (EQ-5D-3L) (Copyright 1990 EuroQol Group. EQ-5D is a trade mark of the EuroQol Group).</nciodm:CDISCDefinition>
                    <nciodm:PreferredTerm>European Quality of Life Five Dimension Three Level Questionnaire</nciodm:PreferredTerm>
                </EnumeratedItem>
                <EnumeratedItem CodedValue="EQ-5D-5L" nciodm:ExtCodeID="C102117">
                    <nciodm:CDISCSynonym>EQ5D02</nciodm:CDISCSynonym>
                    <nciodm:CDISCDefinition>European Quality of Life Five Dimension Five Level Scale (EQ-5D-5L) (Copyright 2009 EuroQol Group. EQ-5D is a trade mark of the EuroQol Group).</nciodm:CDISCDefinition>
                    <nciodm:PreferredTerm>European Quality of Life Five Dimension Five Level Scale Questionnaire</nciodm:PreferredTerm>
                </EnumeratedItem>
                <EnumeratedItem CodedValue="ESS" nciodm:ExtCodeID="C103517">
                    <nciodm:CDISCSynonym>ESS01</nciodm:CDISCSynonym>
                    <nciodm:CDISCDefinition>Epworth Sleepiness Scale (ESS) (copyright Murray W. Johns, 1990-1997. All rights reserved.).</nciodm:CDISCDefinition>
                    <nciodm:PreferredTerm>Epworth Sleepiness Scale Questionnaire</nciodm:PreferredTerm>
                </EnumeratedItem>
                <EnumeratedItem CodedValue="FAMS" nciodm:ExtCodeID="C112521">
                    <nciodm:CDISCSynonym>FAMS01</nciodm:CDISCSynonym>
                    <nciodm:CDISCDefinition>Functional Assessment of Multiple Sclerosis Version 4 (FAMS) (Cella et al. Validation of the Functional Assessment of Multiple Sclerosis quality of life instrument. NEUROLOGY 1996;47: 129-139). (Questionnaires and all related subscales, translations, and adaptations ('FACIT System') are owned and copyrighted by David Cella, Ph.D. The ownership and copyright of the FACIT System resides strictly with Dr. Cella. Dr. Cella has granted FACIT.org the right to license usage of the FACIT System to other parties).</nciodm:CDISCDefinition>
                    <nciodm:PreferredTerm>Functional Assessment of Multiple Sclerosis Questionnaire</nciodm:PreferredTerm>
                </EnumeratedItem>
                <EnumeratedItem CodedValue="FAQ" nciodm:ExtCodeID="C111381">
                    <nciodm:CDISCSynonym>FAQ01</nciodm:CDISCSynonym>
                    <nciodm:CDISCDefinition>Functional Activities Questionnaire (FAQ) (Pfeiffer, RI.; Kurosaki, TT.; Harrah, CH. Jr.; Chance, JM.; and Filos, S. (1982). Measurement of functional activities in older adults in the community. Journal of Gerontology, 37(3), 323-329.).</nciodm:CDISCDefinition>
                    <nciodm:PreferredTerm>Functional Activities Questionnaire</nciodm:PreferredTerm>
                </EnumeratedItem>
                <EnumeratedItem CodedValue="FAQ-NACC" nciodm:ExtCodeID="C111382">
                    <nciodm:CDISCSynonym>FAQ02</nciodm:CDISCSynonym>
                    <nciodm:CDISCDefinition>Functional Activities Questionnaire-NACC (FAQ-NACC) (Pfeffer, RI.; Kurosaki, TT.; Harrah, CH. Jr.; Chance, JM.; and Filos, S. (1982). Measurement of functional activities in older adults in the community. Journal of Gerontology, 37(3), 323-329.). (Reproduced with permission. Copyright 2011 University of Washington. Created and published by the ADC Clinical Task Force. John C. Morris, MD, Chair, and the National Alzheimer's Coordinating Center. U01 AG016976 - Walter A. Kukull, PhD, Director).</nciodm:CDISCDefinition>
                    <nciodm:PreferredTerm>Functional Activities Questionnaire-NACC Version</nciodm:PreferredTerm>
                </EnumeratedItem>
                <EnumeratedItem CodedValue="FIQR" nciodm:ExtCodeID="C103518">
                    <nciodm:CDISCSynonym>FIQR01</nciodm:CDISCSynonym>
                    <nciodm:CDISCDefinition>Revised Fibromyalgia Impact Questionnaire (FIQR) (copyright 2009 Bennett RM and Friend. All Rights Reserved.).</nciodm:CDISCDefinition>
                    <nciodm:PreferredTerm>Revised Fibromyalgia Impact Questionnaire</nciodm:PreferredTerm>
                </EnumeratedItem>
                <EnumeratedItem CodedValue="FPSR" nciodm:ExtCodeID="C100766">
                    <nciodm:CDISCSynonym>FPSR1</nciodm:CDISCSynonym>
                    <nciodm:CDISCDefinition>Faces Pain Scale - Revised (FPS-R) (Hicks CL, von Baeyer CL, van Korlaar I, Goodenough B. Faces Pain Scale-Revised: Toward a Common Metric in Pediatric Pain Measurement. Pain 2001; 93:173-183).</nciodm:CDISCDefinition>
                    <nciodm:PreferredTerm>Faces Pain Scale Revised Questionnaire</nciodm:PreferredTerm>
                </EnumeratedItem>
                <EnumeratedItem CodedValue="FSS" nciodm:ExtCodeID="C106621">
                    <nciodm:CDISCSynonym>FSS01</nciodm:CDISCSynonym>
                    <nciodm:CDISCDefinition>Fatigue Severity Scale (FSS) (Copyright Lauren B. Krupp).</nciodm:CDISCDefinition>
                    <nciodm:PreferredTerm>Fatigue Severity Scale</nciodm:PreferredTerm>
                </EnumeratedItem>
                <EnumeratedItem CodedValue="GAD-7" nciodm:ExtCodeID="C103519">
                    <nciodm:CDISCSynonym>GAD01</nciodm:CDISCSynonym>
                    <nciodm:CDISCDefinition>Generalized Anxiety Disorder - 7 (GAD-7) (Spitzer RL, Kroenke K, Williams JBW, Lowe B. A brief measure for assessing generalized anxiety disorder: The GAD-7. Arch Intern Med 2006; 166:1092-1097).</nciodm:CDISCDefinition>
                    <nciodm:PreferredTerm>Generalized Anxiety Disorder - 7 Questionnaire</nciodm:PreferredTerm>
                </EnumeratedItem>
                <EnumeratedItem CodedValue="GCGI" nciodm:ExtCodeID="C105169">
                    <nciodm:CDISCSynonym>GCGI01</nciodm:CDISCSynonym>
                    <nciodm:CDISCDefinition>The General Clinical Global Impressions (GCGI v1) questions were created by STANDARDS (Standardized Analgesic Database for Research, Discovery, and Submissions) and sponsored by ACTTION (Analgesic Clinical Trial Translations, Innovations, Opportunities, and Networks) www.acttion.org; 2012-08-07 v1.</nciodm:CDISCDefinition>
                    <nciodm:PreferredTerm>STANDARDS General Clinical Global Impressions Questionnaire</nciodm:PreferredTerm>
                </EnumeratedItem>
                <EnumeratedItem CodedValue="GDS" nciodm:ExtCodeID="C106697">
                    <nciodm:CDISCSynonym>GDS01</nciodm:CDISCSynonym>
                    <nciodm:CDISCDefinition>Geriatric Depression Scale (GDS) (Yesavage JA, Brink TL, Rose TL, et al. Development and validation of a geriatric depression screening scale: a preliminary report. J Psychiatry Res. 1983;17(1):37-49).</nciodm:CDISCDefinition>
                    <nciodm:PreferredTerm>Geriatric Depression Scale Questionnaire</nciodm:PreferredTerm>
                </EnumeratedItem>
                <EnumeratedItem CodedValue="GDS SHORT FORM" nciodm:ExtCodeID="C106698">
                    <nciodm:CDISCSynonym>GDS02</nciodm:CDISCSynonym>
                    <nciodm:CDISCDefinition>Geriatric Depression Scale Short Form (GDS Short Form) (Sheikh JI, Yesavage JA. Geriatric Depression Scale (GDS): recent evidence and development of a shorter version. Clin Gerontol. 1986 June;5(1/2):165-173).</nciodm:CDISCDefinition>
                    <nciodm:PreferredTerm>Geriatric Depression Scale Short Form Questionnaire</nciodm:PreferredTerm>
                </EnumeratedItem>
                <EnumeratedItem CodedValue="GOSE" nciodm:ExtCodeID="C115797">
                    <nciodm:CDISCSynonym>GOSE1</nciodm:CDISCSynonym>
                    <nciodm:CDISCDefinition>Extended Glasgow Outcome Scale (GOSE) (Wilson JT, Pettigrew LE, Teasdale GM. Structured interviews for the Glasgow Outcome Scale and the Extended Glasgow Outcome Scale: Guidelines for their use. Journal of Neurotrauma 1998;15:573-585).</nciodm:CDISCDefinition>
                    <nciodm:PreferredTerm>Extended Glasgow Outcome Scale Questionnaire</nciodm:PreferredTerm>
                </EnumeratedItem>
                <EnumeratedItem CodedValue="HADS" nciodm:ExtCodeID="C103520">
                    <nciodm:CDISCSynonym>HADS01</nciodm:CDISCSynonym>
                    <nciodm:CDISCDefinition>Hospital Anxiety and Depression Scale (HADS) (copyright 1983, 1992, 1994 by R.P. Snaith and A.S. Zigmond. All rights reserved.).</nciodm:CDISCDefinition>
                    <nciodm:PreferredTerm>Hospital Anxiety and Depression Scale Questionnaire</nciodm:PreferredTerm>
                </EnumeratedItem>
                <EnumeratedItem CodedValue="HAM-A" nciodm:ExtCodeID="C102118">
                    <nciodm:CDISCSynonym>HAMA1</nciodm:CDISCSynonym>
                    <nciodm:CDISCDefinition>The Hamilton Anxiety Rating Scale (HAM-A) (Hamilton M. The assessment of anxiety states by rating. Br J Med Psychol 1959; 32:50-55).</nciodm:CDISCDefinition>
                    <nciodm:PreferredTerm>Hamilton Anxiety Rating Scale Questionnaire</nciodm:PreferredTerm>
                </EnumeratedItem>
                <EnumeratedItem CodedValue="HAMD 17" nciodm:ExtCodeID="C100767">
                    <nciodm:CDISCSynonym>HAMD1</nciodm:CDISCSynonym>
                    <nciodm:CDISCDefinition>The Hamilton Depression Rating Scale 17-Item (HAMD 17) (Hamilton M. Development of a rating scale for primary depressive illness. Br J Soc Clin Psychol 1967; 6(4):278-96).</nciodm:CDISCDefinition>
                    <nciodm:PreferredTerm>Hamilton Depression Rating Scale 17 Item Questionnaire</nciodm:PreferredTerm>
                </EnumeratedItem>
                <EnumeratedItem CodedValue="HAMD 21" nciodm:ExtCodeID="C102119">
                    <nciodm:CDISCSynonym>HAMD2</nciodm:CDISCSynonym>
                    <nciodm:CDISCDefinition>The Hamilton Depression Rating Scale 21-Item (HAMD 21) (Hedlund and Vieweg, The Hamilton rating scale for depression. Journal of Operational Psychiatry, 1979;10(2):149-165).</nciodm:CDISCDefinition>
                    <nciodm:PreferredTerm>Hamilton Depression Rating Scale 21-Item Questionnaire</nciodm:PreferredTerm>
                </EnumeratedItem>
                <EnumeratedItem CodedValue="HAQ-DI" nciodm:ExtCodeID="C106699">
                    <nciodm:CDISCSynonym>HAQ01</nciodm:CDISCSynonym>
                    <nciodm:CDISCDefinition>Health Assessment Questionnaire Disability Index (HAQ-DI) (Fries JF. The assessment of disability: from first to future principles. Br J Rheumatol. 1983 Aug; 22(3 Suppl):48-58).</nciodm:CDISCDefinition>
                    <nciodm:PreferredTerm>Health Assessment Questionnaire Disability Index Questionnaire</nciodm:PreferredTerm>
                </EnumeratedItem>
                <EnumeratedItem CodedValue="IIEF" nciodm:ExtCodeID="C103521">
                    <nciodm:CDISCSynonym>IIEF01</nciodm:CDISCSynonym>
                    <nciodm:CDISCDefinition>International Index of Erectile Function (IIEF) (Rosen RC, Riley A, Wagner G, Osterloh IH, Kirkpatrick J, and Mishra A. The international index of erectile function (IIEF): a multidimensional scale for assessment of erectile dysfunction. Urology. 1997 49(6): 822-830).</nciodm:CDISCDefinition>
                    <nciodm:PreferredTerm>International Index of Erectile Function Questionnaire</nciodm:PreferredTerm>
                </EnumeratedItem>
                <EnumeratedItem CodedValue="IVIS" nciodm:ExtCodeID="C113876">
                    <nciodm:CDISCSynonym>IVIS01</nciodm:CDISCSynonym>
                    <nciodm:CDISCDefinition>Impact of Visual Impairment Scale (IVIS) (1997 by the National Multiple Sclerosis Society. All rights reserved).</nciodm:CDISCDefinition>
                    <nciodm:PreferredTerm>Impact of Visual Impairment Scale Questionnaire</nciodm:PreferredTerm>
                </EnumeratedItem>
                <EnumeratedItem CodedValue="KFSS" nciodm:ExtCodeID="C112522">
                    <nciodm:CDISCSynonym>KFSS1</nciodm:CDISCSynonym>
                    <nciodm:CDISCDefinition>Kurtzke Functional Systems Scores (FSS) (Kurtzke JF. Rating neurologic impairment in multiple sclerosis: an expanded disability status scale (EDSS). Neurology. 1983 Nov;33(11):1444-52).</nciodm:CDISCDefinition>
                    <nciodm:PreferredTerm>Kurtzke Functional Systems Scores Questionnaire</nciodm:PreferredTerm>
                </EnumeratedItem>
                <EnumeratedItem CodedValue="KPS SCALE" nciodm:ExtCodeID="C100768">
                    <nciodm:CDISCSynonym>KPSS</nciodm:CDISCSynonym>
                    <nciodm:CDISCDefinition>The Karnofsky Performance Status Scale (KPSS) (Karnofsky DA, Burchenal JH. (1949). "The Clinical Evaluation of Chemotherapeutic Agents in Cancer." In: MacLeod CM (Ed), Evaluation of Chemotherapeutic Agents. Columbia Univ Press. Page 196).</nciodm:CDISCDefinition>
                    <nciodm:PreferredTerm>Karnofsky Performance Status Scale Questionnaire</nciodm:PreferredTerm>
                </EnumeratedItem>
                <EnumeratedItem CodedValue="MDS-UPDRS" nciodm:ExtCodeID="C100769">
                    <nciodm:CDISCSynonym>UPD2</nciodm:CDISCSynonym>
                    <nciodm:CDISCDefinition>The Movement Disorder Society version of the Unified Parkinson's Disease Rating Scale (MDS-UPDRS) (copyright 2008 Movement Disorder Society. All Rights Reserved).</nciodm:CDISCDefinition>
                    <nciodm:PreferredTerm>Movement Disorder Society Unified Parkinson's Disease Rating Scale Questionnaire</nciodm:PreferredTerm>
                </EnumeratedItem>
                <EnumeratedItem CodedValue="MFIS" nciodm:ExtCodeID="C113877">
                    <nciodm:CDISCSynonym>MFIS01</nciodm:CDISCSynonym>
                    <nciodm:CDISCDefinition>Modified Fatigue Impact Scale (MFIS) (1997 by the National Multiple Sclerosis Society. All rights reserved).</nciodm:CDISCDefinition>
                    <nciodm:PreferredTerm>Modified Fatigue Impact Scale Questionnaire</nciodm:PreferredTerm>
                </EnumeratedItem>
                <EnumeratedItem CodedValue="MHIS-NACC" nciodm:ExtCodeID="C112523">
                    <nciodm:CDISCSynonym>MHIS01</nciodm:CDISCSynonym>
                    <nciodm:CDISCDefinition>Modified Hachinski Ischemic Scale-NACC Version (MHIS-NACC) Reproduced with permission. Copyright 2011 University of Washington. Created and published by the ADC Clinical Task Force (John C. Morris, MD, Chair) and the National Alzheimer's Coordinating Center (Walter A. Kukull, PhD, Director). This publication was funded by the National Institutes of Health through the National Institute on Aging (Cooperative Agreement U01 AG016976).</nciodm:CDISCDefinition>
                    <nciodm:PreferredTerm>Modified Hachinski Ischemic Scale-NACC Version Questionnaire</nciodm:PreferredTerm>
                </EnumeratedItem>
                <EnumeratedItem CodedValue="MMRC" nciodm:ExtCodeID="C106700">
                    <nciodm:CDISCSynonym>MMRC01</nciodm:CDISCSynonym>
                    <nciodm:CDISCDefinition>Modified Medical Research Council dyspnea scale (MMRC) (Mahler DA, Wells CK. Evaluation of Clinical Methods for Rating Dyspnea. Chest 1988; 93:580-586).</nciodm:CDISCDefinition>
                    <nciodm:PreferredTerm>Modified Medical Research Council Dyspnea Scale Questionnaire</nciodm:PreferredTerm>
                </EnumeratedItem>
                <EnumeratedItem CodedValue="MNSI" nciodm:ExtCodeID="C100771">
                    <nciodm:CDISCSynonym>MNSI1</nciodm:CDISCSynonym>
                    <nciodm:CDISCDefinition>Michigan Neuropathy Screening Instrument (MNSI) (copyright University of Michigan, 2000, All rights reserved).</nciodm:CDISCDefinition>
                    <nciodm:PreferredTerm>Michigan Neuropathy Screening Instrument Questionnaire</nciodm:PreferredTerm>
                </EnumeratedItem>
                <EnumeratedItem CodedValue="MPAI-4" nciodm:ExtCodeID="C115798">
                    <nciodm:CDISCSynonym>MPAI1</nciodm:CDISCSynonym>
                    <nciodm:CDISCDefinition>The Mayo-Portland Adaptability Inventory-4 (MPAI-4) (Malec, J. (2005). The Mayo-Portland Adaptability Inventory-4. The Center for Outcome Measurement in Brain Injury. http://www.tbims.org/combi/mpai).</nciodm:CDISCDefinition>
                    <nciodm:PreferredTerm>Mayo-Portland Adaptability Inventory-4 Questionnaire</nciodm:PreferredTerm>
                </EnumeratedItem>
                <EnumeratedItem CodedValue="MRS" nciodm:ExtCodeID="C111383">
                    <nciodm:CDISCSynonym>MRS01</nciodm:CDISCSynonym>
                    <nciodm:CDISCDefinition>Modified Rankin Scale (MRS) (Van Swieten J., Koudstaal P., Visser M., Schouten H., and Van Gijn J. Interobserver agreement for the assessment of handicap in stroke patients, 1988. Stroke 19: 604-607).</nciodm:CDISCDefinition>
                    <nciodm:PreferredTerm>Modified Rankin Scale Questionnaire</nciodm:PreferredTerm>
                </EnumeratedItem>
                <EnumeratedItem CodedValue="MSQOL-54" nciodm:ExtCodeID="C113878">
                    <nciodm:CDISCSynonym>MSQL1</nciodm:CDISCSynonym>
                    <nciodm:CDISCDefinition>Multiple Sclerosis Quality of Life-54 Instrument (MSQOL-54) (Copyright 1995, University of California, Los Angeles).</nciodm:CDISCDefinition>
                    <nciodm:PreferredTerm>Multiple Sclerosis Quality of Life-54 Instrument Questionnaire</nciodm:PreferredTerm>
                </EnumeratedItem>
                <EnumeratedItem CodedValue="NPI" nciodm:ExtCodeID="C100772">
                    <nciodm:CDISCSynonym>NPI1</nciodm:CDISCSynonym>
                    <nciodm:CDISCDefinition>Neuropsychiatric Inventory (NPI) (copyright JL Cummings, 1994, all rights reserved; permission for commercial use required; npiTEST.net).</nciodm:CDISCDefinition>
                    <nciodm:PreferredTerm>Neuropsychiatric Inventory Questionnaire</nciodm:PreferredTerm>
                </EnumeratedItem>
                <EnumeratedItem CodedValue="NPS" nciodm:ExtCodeID="C103522">
                    <nciodm:CDISCSynonym>NPS01</nciodm:CDISCSynonym>
                    <nciodm:CDISCDefinition>Neuropathic Pain Scale (NPS) (copyright Brad Galer and Mark Jensen. All rights reserved.).</nciodm:CDISCDefinition>
                    <nciodm:PreferredTerm>Neuropathic Pain Scale Questionnaire</nciodm:PreferredTerm>
                </EnumeratedItem>
                <EnumeratedItem CodedValue="OAB-Q" nciodm:ExtCodeID="C103523">
                    <nciodm:CDISCSynonym>OABQ01</nciodm:CDISCSynonym>
                    <nciodm:CDISCDefinition>The Overactive Bladder Questionnaire (OAB-q) (Coyne K, Revicki D, Hunt T, et al. Psychometric validation of an overactive bladder symptom and health-related quality of life questionnaire: the OAB-q. Qual Life Res. Sep 2002; 11(6):563-574).</nciodm:CDISCDefinition>
                    <nciodm:PreferredTerm>The Overactive Bladder Questionnaire</nciodm:PreferredTerm>
                </EnumeratedItem>
                <EnumeratedItem CodedValue="OAB-Q SHORT FORM" nciodm:ExtCodeID="C103524">
                    <nciodm:CDISCSynonym>OABQ02</nciodm:CDISCSynonym>
                    <nciodm:CDISCDefinition>The Overactive Bladder Questionnaire Short Form (OAB-q Short Form) (Coyne KS, Lai JS, Zyczynski T, Kopp Z, Avery K, Abrams P. An overactive bladder symptom and quality-of-life short form: development of the Overactive Bladder Questionnaire (OAB-q) short form (SF). Presented at the Joint Meeting of the International Continence Society and the International Urogynecological Association; August 23-27, 2004; Paris, France).</nciodm:CDISCDefinition>
                    <nciodm:PreferredTerm>The Overactive Bladder Questionnaire Short Form</nciodm:PreferredTerm>
                </EnumeratedItem>
                <EnumeratedItem CodedValue="ODI v2.1A" nciodm:ExtCodeID="C103525">
                    <nciodm:CDISCSynonym>ODI01</nciodm:CDISCSynonym>
                    <nciodm:CDISCDefinition>The Oswestry Disability Index Version 2.1a (ODI v2.1A) (copyright 1980 Jeremy Fairbank. All Rights Reserved.).</nciodm:CDISCDefinition>
                    <nciodm:PreferredTerm>The Oswestry Disability Index Version 2.1a Questionnaire</nciodm:PreferredTerm>
                </EnumeratedItem>
                <EnumeratedItem CodedValue="PDDS" nciodm:ExtCodeID="C112524">
                    <nciodm:CDISCSynonym>PDDS01</nciodm:CDISCSynonym>
                    <nciodm:CDISCDefinition>Patient Determined Disease Steps (PDDS) (Hohol MJ, Orav EJ, Weiner HL. Disease Steps in multiple sclerosis: A simple approach to evaluate disease progression. Neurology 1995; 45: 251-55). (Hohol MJ, Orav EJ, Weiner HL. Disease Steps in multiple sclerosis: a longitudinal study comparing disease steps and EDSS to evaluate disease progression. Multiple Sclerosis 1999; 5: 349-54). (Marrie RA and Goldman M. Validity of performance scales for disability assessment in multiple sclerosis. Multiple Sclerosis 2007; 13: 1176-1182). (The PDDS and/or PS are provided for use by the NARCOMS Registry: www.narcoms.org/pdds. NARCOMS is supported in part by the Consortium of Multiple Sclerosis Centers (CMSC) and the CMSC Foundation).</nciodm:CDISCDefinition>
                    <nciodm:PreferredTerm>Patient Determined Disease Steps Questionnaire</nciodm:PreferredTerm>
                </EnumeratedItem>
                <EnumeratedItem CodedValue="PDQUALIF" nciodm:ExtCodeID="C100773">
                    <nciodm:CDISCSynonym>PDQ01</nciodm:CDISCSynonym>
                    <nciodm:CDISCDefinition>Parkinson's Disease Quality of Life Scale (PDQUALIF) (Welsh M, McDermott MP, Holloway RG, Plumb S, Pfeiffer R, Hubble J, and The Parkinson Study Group. Development and Testing of the Parkinson's Disease Quality of Life Scale. Movement Disorders, 2003, Vol. 18; 637-645).</nciodm:CDISCDefinition>
                    <nciodm:PreferredTerm>Parkinson's Disease Quality of Life Scale Questionnaire</nciodm:PreferredTerm>
                </EnumeratedItem>
                <EnumeratedItem CodedValue="PHQ-15" nciodm:ExtCodeID="C103527">
                    <nciodm:CDISCSynonym>PHQ02</nciodm:CDISCSynonym>
                    <nciodm:CDISCDefinition>Patient Health Questionnaire - 15 (PHQ-15) (Kroenke K, Spitzer RL, Williams JBW. The PHQ-15: Validity of a new measure for evaluating the severity of somatic symptoms. Psychosom Med 2002; 64:258-266).</nciodm:CDISCDefinition>
                    <nciodm:PreferredTerm>Patient Health Questionnaire - 15 Item</nciodm:PreferredTerm>
                </EnumeratedItem>
                <EnumeratedItem CodedValue="PHQ-9" nciodm:ExtCodeID="C103526">
                    <nciodm:CDISCSynonym>PHQ01</nciodm:CDISCSynonym>
                    <nciodm:CDISCDefinition>Patient Health Questionnaire - 9 (PHQ-9) (Kroenke K, Spitzer RL, Williams JBW. The PHQ-9: Validity of a brief depression severity measure. J Gen Intern Med 2001; 16:606-613).</nciodm:CDISCDefinition>
                    <nciodm:PreferredTerm>Patient Health Questionnaire - 9 Item</nciodm:PreferredTerm>
                </EnumeratedItem>
                <EnumeratedItem CodedValue="PI" nciodm:ExtCodeID="C105167">
                    <nciodm:CDISCSynonym>PI01</nciodm:CDISCSynonym>
                    <nciodm:CDISCDefinition>The Pain Intensity (PI) questions were created by STANDARDS (Standardized Analgesic Database for Research, Discovery, and Submissions) and sponsored by ACTTION (Analgesic Clinical Trial Translations, Innovations, Opportunities, and Networks) www.acttion.org; 2012-08-07 v1.</nciodm:CDISCDefinition>
                    <nciodm:PreferredTerm>STANDARDS Pain Intensity Questionnaire</nciodm:PreferredTerm>
                </EnumeratedItem>
                <EnumeratedItem CodedValue="PR" nciodm:ExtCodeID="C105168">
                    <nciodm:CDISCSynonym>PR01</nciodm:CDISCSynonym>
                    <nciodm:CDISCDefinition>The Pain Relief (PR) questions were created by STANDARDS (Standardized Analgesic Database for Research, Discovery, and Submissions) and sponsored by ACTTION (Analgesic Clinical Trial Translations, Innovations, Opportunities, and Networks) www.acttion.org; 2012-08-07 v1.</nciodm:CDISCDefinition>
                    <nciodm:PreferredTerm>STANDARDS Pain Relief Questionnaire</nciodm:PreferredTerm>
                </EnumeratedItem>
                <EnumeratedItem CodedValue="RAND-36 V1.0" nciodm:ExtCodeID="C113879">
                    <nciodm:CDISCSynonym>R3601</nciodm:CDISCSynonym>
                    <nciodm:CDISCDefinition>RAND 36-Item Health Survey 1.0 (RAND-36) (Copyright the RAND Corporation. Developed at RAND as part of the Medical Outcomes Study).</nciodm:CDISCDefinition>
                    <nciodm:PreferredTerm>RAND 36-Item Health Survey 1.0 Questionnaire</nciodm:PreferredTerm>
                </EnumeratedItem>
                <EnumeratedItem CodedValue="RDQ" nciodm:ExtCodeID="C100774">
                    <nciodm:CDISCSynonym>RDQ01</nciodm:CDISCSynonym>
                    <nciodm:CDISCDefinition>Roland Morris Disability Questionnaire (RDQ) (Roland MO, Morris RW. A study of the natural history of back pain. Part 1: Development of a reliable and sensitive measure of disability in low back pain. Spine 1983;8:141-144).</nciodm:CDISCDefinition>
                    <nciodm:PreferredTerm>Roland Morris Disability Questionnaire</nciodm:PreferredTerm>
                </EnumeratedItem>
                <EnumeratedItem CodedValue="SDS" nciodm:ExtCodeID="C111384">
                    <nciodm:CDISCSynonym>SDS01</nciodm:CDISCSynonym>
                    <nciodm:CDISCDefinition>Sheehan Disability Scale (Copyright 1983, 2010, 2011 David V. Sheehan. All rights reserved.).</nciodm:CDISCDefinition>
                    <nciodm:PreferredTerm>Sheehan Disability Scale Questionnaire</nciodm:PreferredTerm>
                </EnumeratedItem>
                <EnumeratedItem CodedValue="SGRQ PAST 3 MONTHS VERSION" nciodm:ExtCodeID="C112525">
                    <nciodm:CDISCSynonym>SGRQ01</nciodm:CDISCSynonym>
                    <nciodm:CDISCDefinition>St. George's Respiratory Questionnaire (SGRQ) Past 3 Months Version (copyright P.W. Jones, St. George's University of London).</nciodm:CDISCDefinition>
                    <nciodm:PreferredTerm>St. George's Respiratory Questionnaire Past 3 Months Version</nciodm:PreferredTerm>
                </EnumeratedItem>
                <EnumeratedItem CodedValue="SGRQ PAST 4 WEEKS VERSION" nciodm:ExtCodeID="C112526">
                    <nciodm:CDISCSynonym>SGRQ02</nciodm:CDISCSynonym>
                    <nciodm:CDISCDefinition>St. George's Respiratory Questionnaire (SGRQ) Past 4 Weeks Version (copyright P.W. Jones, St. George's University of London).</nciodm:CDISCDefinition>
                    <nciodm:PreferredTerm>St. George's Respiratory Questionnaire Past 4 Weeks Version</nciodm:PreferredTerm>
                </EnumeratedItem>
                <EnumeratedItem CodedValue="SGRQ-C" nciodm:ExtCodeID="C106890">
                    <nciodm:CDISCSynonym>SGRQC1</nciodm:CDISCSynonym>
                    <nciodm:CDISCDefinition>St. George's Respiratory Questionnaire for COPD Patients (SGRQ-C) (Jones PW, Quirk FH, Baveystock CM, and Littlejohns PA. Self-complete measure of health status for chronic airflow limitation. The St. George's Respiratory Questionnaire. Am Rev Respir Dis. 1992 Jun; 145(6):1321-7).</nciodm:CDISCDefinition>
                    <nciodm:PreferredTerm>St. George's Respiratory Questionnaire for Chronic Obstructive Pulmonary Disease Patients</nciodm:PreferredTerm>
                </EnumeratedItem>
                <EnumeratedItem CodedValue="SHORT-FORM MPQ-2" nciodm:ExtCodeID="C100776">
                    <nciodm:CDISCSynonym>SFMP2</nciodm:CDISCSynonym>
                    <nciodm:CDISCDefinition>Short-Form McGill Pain Questionnaire-2 (SF-MPQ-2) (Copyright R. Melzack and the Initiative on Methods, Measurement, and Pain Assessment in Clinical Trials (IMMPACT), 2009, All Rights Reserved).</nciodm:CDISCDefinition>
                    <nciodm:PreferredTerm>Short-Form McGill Pain Questionnaire-2</nciodm:PreferredTerm>
                </EnumeratedItem>
                <EnumeratedItem CodedValue="SIQR" nciodm:ExtCodeID="C103528">
                    <nciodm:CDISCSynonym>SIQR01</nciodm:CDISCSynonym>
                    <nciodm:CDISCDefinition>Symptom Impact Questionnaire (SIQR) (copyright 2009 Bennett RM and Friend. All Rights Reserved.).</nciodm:CDISCDefinition>
                    <nciodm:PreferredTerm>Symptom Impact Questionnaire</nciodm:PreferredTerm>
                </EnumeratedItem>
                <EnumeratedItem CodedValue="SOAPP-R" nciodm:ExtCodeID="C100777">
                    <nciodm:CDISCSynonym>SOAPR1</nciodm:CDISCSynonym>
                    <nciodm:CDISCDefinition>Screener and Opioid Assessment for Patients with Pain Revised (SOAPP-R) (copyright 2007 Inflexxion, Inc., All rights reserved).</nciodm:CDISCDefinition>
                    <nciodm:PreferredTerm>Screener and Opioid Assessment for Patients with Pain Revised Questionnaire</nciodm:PreferredTerm>
                </EnumeratedItem>
                <EnumeratedItem CodedValue="SOWS SHORT" nciodm:ExtCodeID="C103529">
                    <nciodm:CDISCSynonym>SOWSB1</nciodm:CDISCSynonym>
                    <nciodm:CDISCDefinition>Short Opiate Withdrawal Scale (SOWS SHORT) (Gossop, M. The development of a short opiate withdrawal scale. Addictive Behaviors 1990; 15:487-490).</nciodm:CDISCDefinition>
                    <nciodm:PreferredTerm>Short Opiate Withdrawal Scale Questionnaire</nciodm:PreferredTerm>
                </EnumeratedItem>
                <EnumeratedItem CodedValue="SOWS SUBJECTIVE" nciodm:ExtCodeID="C102123">
                    <nciodm:CDISCSynonym>SOWSA1</nciodm:CDISCSynonym>
                    <nciodm:CDISCDefinition>The Subjective Opiate Withdrawal Scale (SOWS) (Handelsman, L., Cochrane, K. J., Aronson, M. J. Ness, R., Rubinstein K.J., Kanof, P.D. (1987) Two New Rating Scales for Opiate Withdrawal. American Journal of Alcohol Abuse, 13, 293-308).</nciodm:CDISCDefinition>
                    <nciodm:PreferredTerm>Subjective Opiate Withdrawal Scale Questionnaire</nciodm:PreferredTerm>
                </EnumeratedItem>
                <EnumeratedItem CodedValue="SWLS" nciodm:ExtCodeID="C115799">
                    <nciodm:CDISCSynonym>SWLS01</nciodm:CDISCSynonym>
                    <nciodm:CDISCDefinition>The Satisfaction With Life Scale (SWLS) (Diener, E., Emmons, R., Larsen, J., and Griffin, S. (1985). The Satisfaction With Life Scale. J Personality Assessment, 49(1): 71-75).</nciodm:CDISCDefinition>
                    <nciodm:PreferredTerm>Satisfaction With Life Scale Questionnaire</nciodm:PreferredTerm>
                </EnumeratedItem>
                <EnumeratedItem CodedValue="TDI" nciodm:ExtCodeID="C106694">
                    <nciodm:CDISCSynonym>TDI01</nciodm:CDISCSynonym>
                    <nciodm:CDISCDefinition>Transition Dyspnea Index (TDI) (Mahler DA, Weinberg DH, Wells CK, Feinstein AR. The measurement of dyspnea. Contents, interobserver agreement, and physiologic correlates of two new clinical indexes. Chest 1984, 85: 751-758).</nciodm:CDISCDefinition>
                    <nciodm:PreferredTerm>Transition Dyspnea Index Questionnaire</nciodm:PreferredTerm>
                </EnumeratedItem>
                <EnumeratedItem CodedValue="UPDRS" nciodm:ExtCodeID="C100778">
                    <nciodm:CDISCSynonym>UPD1</nciodm:CDISCSynonym>
                    <nciodm:CDISCDefinition>Unified Parkinson's Disease Rating Scale (UPDRS) (Fahn S, Marsden CD, Calne DB, Goldstein M, eds. Recent Developments in Parkinson's Disease, Vol 2. Florham Park, NJ. Macmillan Health Care Information 1987, pp 153-163, 293-304).</nciodm:CDISCDefinition>
                    <nciodm:PreferredTerm>Unified Parkinson's Disease Rating Scale Questionnaire</nciodm:PreferredTerm>
                </EnumeratedItem>
                <EnumeratedItem CodedValue="UPS" nciodm:ExtCodeID="C103530">
                    <nciodm:CDISCSynonym>UPS01</nciodm:CDISCSynonym>
                    <nciodm:CDISCDefinition>Urgency Perception Scale (UPS) (copyright Pfizer. All rights reserved.).</nciodm:CDISCDefinition>
                    <nciodm:PreferredTerm>Urgency Perception Scale Questionnaire</nciodm:PreferredTerm>
                </EnumeratedItem>
                <EnumeratedItem CodedValue="VFQ-25 INTERVIEWER ADMINISTERED" nciodm:ExtCodeID="C112527">
                    <nciodm:CDISCSynonym>VFQ1</nciodm:CDISCSynonym>
                    <nciodm:CDISCDefinition>National Eye Institute Visual Functioning Questionnaire - 25 (VFQ-25) Version 2000 Interviewer-Administered Format (Mangione, C. M., Lee, P. P., Gutierrez, P. R., Spritzer, K., Berry, S., &amp; Hays, R. D. Development of the 25-item National Eye Institute Visual Function Questionnaire (VFQ-25). Archives of Ophthalmology. 2001; 119:1050-1058). (This instrument was developed at RAND under the sponsorship of the National Eye Institute).</nciodm:CDISCDefinition>
                    <nciodm:PreferredTerm>Visual Functioning Questionnaire 25-Interviewer Administered Format Version 2000</nciodm:PreferredTerm>
                </EnumeratedItem>
                <EnumeratedItem CodedValue="VFQ-25 SELF ADMINISTERED" nciodm:ExtCodeID="C112528">
                    <nciodm:CDISCSynonym>VFQ2</nciodm:CDISCSynonym>
                    <nciodm:CDISCDefinition>National Eye Institute Visual Functioning Questionnaire - 25 (VFQ-25) Version 2000 Self-Administered Format (Mangione, C. M., Lee, P. P., Gutierrez, P. R., Spritzer, K., Berry, S., &amp; Hays, R. D. Development of the 25-item National Eye Institute Visual Function Questionnaire (VFQ-25). Archives of Ophthalmology. 2001; 119:1050-1058). (This instrument was developed at RAND under the sponsorship of the National Eye Institute).</nciodm:CDISCDefinition>
                    <nciodm:PreferredTerm>Visual Functioning Questionnaire 25-Self Administered Format Version 2000</nciodm:PreferredTerm>
                </EnumeratedItem>
                <EnumeratedItem CodedValue="WPAI-SHP" nciodm:ExtCodeID="C100779">
                    <nciodm:CDISCSynonym>WPAI01</nciodm:CDISCSynonym>
                    <nciodm:CDISCDefinition>The Work Productivity and Activity Impairment - Specific Health Problems Questionnaire Version 2.0 (WPAI01) (http://www.reillyassociates.net/WPAI_SHP.html).</nciodm:CDISCDefinition>
                    <nciodm:PreferredTerm>Work Productivity and Activity Impairment Specific Health Problems Version 2.0 Questionnaire</nciodm:PreferredTerm>
                </EnumeratedItem>
                <EnumeratedItem CodedValue="YMRS" nciodm:ExtCodeID="C102124">
                    <nciodm:CDISCSynonym>YMRS01</nciodm:CDISCSynonym>
                    <nciodm:CDISCDefinition>Young Mania Rating Scale (YMRS) (Young RC, Biggs JT, Ziegler VE et al: A rating scale for mania: reliability, validity and sensitivity. Br J Psychiatry 133: 429-435, 1978).</nciodm:CDISCDefinition>
                    <nciodm:PreferredTerm>Young Mania Rating Scale Questionnaire</nciodm:PreferredTerm>
                </EnumeratedItem>
                <nciodm:CDISCSubmissionValue>QSCAT</nciodm:CDISCSubmissionValue>
                <nciodm:CDISCSynonym>Category of Questionnaire</nciodm:CDISCSynonym>
                <nciodm:PreferredTerm>CDISC Questionnaire Category Terminology</nciodm:PreferredTerm>
            </CodeList>
            <CodeList OID="CL.C115388.6MWT TESTCD" Name="FT-6 Minute Walk Functional Test Test Code" DataType="text" nciodm:ExtCodeID="C115388" nciodm:CodeListExtensible="No">
                <Description>
                    <TranslatedText xml:lang="en">6 Minute Walk Test test code.</TranslatedText>
                </Description>
                <EnumeratedItem CodedValue="SIXMW101" nciodm:ExtCodeID="C115800">
                    <nciodm:CDISCSynonym>SIXMW1-Distance at 1 Minute</nciodm:CDISCSynonym>
                    <nciodm:CDISCDefinition>6 Minute Walk Test - Distance at 1 minute.</nciodm:CDISCDefinition>
                    <nciodm:PreferredTerm>6MWT - Distance at 1 Minute</nciodm:PreferredTerm>
                </EnumeratedItem>
                <EnumeratedItem CodedValue="SIXMW102" nciodm:ExtCodeID="C115801">
                    <nciodm:CDISCSynonym>SIXMW1-Distance at 2 Minutes</nciodm:CDISCSynonym>
                    <nciodm:CDISCDefinition>6 Minute Walk Test - Distance at 2 minutes.</nciodm:CDISCDefinition>
                    <nciodm:PreferredTerm>6MWT - Distance at 2 Minutes</nciodm:PreferredTerm>
                </EnumeratedItem>
                <EnumeratedItem CodedValue="SIXMW103" nciodm:ExtCodeID="C115802">
                    <nciodm:CDISCSynonym>SIXMW1-Distance at 3 Minutes</nciodm:CDISCSynonym>
                    <nciodm:CDISCDefinition>6 Minute Walk Test - Distance at 3 minutes.</nciodm:CDISCDefinition>
                    <nciodm:PreferredTerm>6MWT - Distance at 3 Minutes</nciodm:PreferredTerm>
                </EnumeratedItem>
                <EnumeratedItem CodedValue="SIXMW104" nciodm:ExtCodeID="C115803">
                    <nciodm:CDISCSynonym>SIXMW1-Distance at 4 Minutes</nciodm:CDISCSynonym>
                    <nciodm:CDISCDefinition>6 Minute Walk Test - Distance at 4 minutes.</nciodm:CDISCDefinition>
                    <nciodm:PreferredTerm>6MWT - Distance at 4 Minutes</nciodm:PreferredTerm>
                </EnumeratedItem>
                <EnumeratedItem CodedValue="SIXMW105" nciodm:ExtCodeID="C115804">
                    <nciodm:CDISCSynonym>SIXMW1-Distance at 5 Minutes</nciodm:CDISCSynonym>
                    <nciodm:CDISCDefinition>6 Minute Walk Test - Distance at 5 minutes.</nciodm:CDISCDefinition>
                    <nciodm:PreferredTerm>6MWT - Distance at 5 Minutes</nciodm:PreferredTerm>
                </EnumeratedItem>
                <EnumeratedItem CodedValue="SIXMW106" nciodm:ExtCodeID="C115805">
                    <nciodm:CDISCSynonym>SIXMW1-Distance at 6 Minutes</nciodm:CDISCSynonym>
                    <nciodm:CDISCDefinition>6 Minute Walk Test - Distance at 6 minutes.</nciodm:CDISCDefinition>
                    <nciodm:PreferredTerm>6MWT - Distance at 6 Minutes</nciodm:PreferredTerm>
                </EnumeratedItem>
                <nciodm:CDISCSubmissionValue>6MWT TESTCD</nciodm:CDISCSubmissionValue>
                <nciodm:CDISCSynonym>FT-6 Minute Walk Functional Test Test Code</nciodm:CDISCSynonym>
                <nciodm:PreferredTerm>CDISC Functional Test 6MWT Test Code Terminology</nciodm:PreferredTerm>
            </CodeList>
            <CodeList OID="CL.C115387.6MWT TEST" Name="FT-6 Minute Walk Functional Test Test Name" DataType="text" nciodm:ExtCodeID="C115387" nciodm:CodeListExtensible="No">
                <Description>
                    <TranslatedText xml:lang="en">6 Minute Walk Test test name.</TranslatedText>
                </Description>
                <EnumeratedItem CodedValue="SIXMW1-Distance at 1 Minute" nciodm:ExtCodeID="C115800">
                    <nciodm:CDISCSynonym>SIXMW1-Distance at 1 Minute</nciodm:CDISCSynonym>
                    <nciodm:CDISCDefinition>6 Minute Walk Test - Distance at 1 minute.</nciodm:CDISCDefinition>
                    <nciodm:PreferredTerm>6MWT - Distance at 1 Minute</nciodm:PreferredTerm>
                </EnumeratedItem>
                <EnumeratedItem CodedValue="SIXMW1-Distance at 2 Minutes" nciodm:ExtCodeID="C115801">
                    <nciodm:CDISCSynonym>SIXMW1-Distance at 2 Minutes</nciodm:CDISCSynonym>
                    <nciodm:CDISCDefinition>6 Minute Walk Test - Distance at 2 minutes.</nciodm:CDISCDefinition>
                    <nciodm:PreferredTerm>6MWT - Distance at 2 Minutes</nciodm:PreferredTerm>
                </EnumeratedItem>
                <EnumeratedItem CodedValue="SIXMW1-Distance at 3 Minutes" nciodm:ExtCodeID="C115802">
                    <nciodm:CDISCSynonym>SIXMW1-Distance at 3 Minutes</nciodm:CDISCSynonym>
                    <nciodm:CDISCDefinition>6 Minute Walk Test - Distance at 3 minutes.</nciodm:CDISCDefinition>
                    <nciodm:PreferredTerm>6MWT - Distance at 3 Minutes</nciodm:PreferredTerm>
                </EnumeratedItem>
                <EnumeratedItem CodedValue="SIXMW1-Distance at 4 Minutes" nciodm:ExtCodeID="C115803">
                    <nciodm:CDISCSynonym>SIXMW1-Distance at 4 Minutes</nciodm:CDISCSynonym>
                    <nciodm:CDISCDefinition>6 Minute Walk Test - Distance at 4 minutes.</nciodm:CDISCDefinition>
                    <nciodm:PreferredTerm>6MWT - Distance at 4 Minutes</nciodm:PreferredTerm>
                </EnumeratedItem>
                <EnumeratedItem CodedValue="SIXMW1-Distance at 5 Minutes" nciodm:ExtCodeID="C115804">
                    <nciodm:CDISCSynonym>SIXMW1-Distance at 5 Minutes</nciodm:CDISCSynonym>
                    <nciodm:CDISCDefinition>6 Minute Walk Test - Distance at 5 minutes.</nciodm:CDISCDefinition>
                    <nciodm:PreferredTerm>6MWT - Distance at 5 Minutes</nciodm:PreferredTerm>
                </EnumeratedItem>
                <EnumeratedItem CodedValue="SIXMW1-Distance at 6 Minutes" nciodm:ExtCodeID="C115805">
                    <nciodm:CDISCSynonym>SIXMW1-Distance at 6 Minutes</nciodm:CDISCSynonym>
                    <nciodm:CDISCDefinition>6 Minute Walk Test - Distance at 6 minutes.</nciodm:CDISCDefinition>
                    <nciodm:PreferredTerm>6MWT - Distance at 6 Minutes</nciodm:PreferredTerm>
                </EnumeratedItem>
                <nciodm:CDISCSubmissionValue>6MWT TEST</nciodm:CDISCSubmissionValue>
                <nciodm:CDISCSynonym>FT-6 Minute Walk Functional Test Test Name</nciodm:CDISCSynonym>
                <nciodm:PreferredTerm>CDISC Functional Test 6MWT Test Name Terminology</nciodm:PreferredTerm>
            </CodeList>
            <CodeList OID="CL.C115390.HAI TESTCD" Name="FT-Hauser Ambulation Index Functional Test Test Code" DataType="text" nciodm:ExtCodeID="C115390" nciodm:CodeListExtensible="No">
                <Description>
                    <TranslatedText xml:lang="en">Hauser Ambulation Index test code.</TranslatedText>
                </Description>
                <EnumeratedItem CodedValue="HAI0101" nciodm:ExtCodeID="C115806">
                    <nciodm:CDISCSynonym>HAI01-Ambulation Index</nciodm:CDISCSynonym>
                    <nciodm:CDISCDefinition>Hauser Ambulation Index - Ambulation index.</nciodm:CDISCDefinition>
                    <nciodm:PreferredTerm>HAI - Ambulation Index</nciodm:PreferredTerm>
                </EnumeratedItem>
                <nciodm:CDISCSubmissionValue>HAI TESTCD</nciodm:CDISCSubmissionValue>
                <nciodm:CDISCSynonym>FT-Hauser Ambulation Index Functional Test Test Code</nciodm:CDISCSynonym>
                <nciodm:PreferredTerm>CDISC Functional Test HAI Test Code Terminology</nciodm:PreferredTerm>
            </CodeList>
            <CodeList OID="CL.C115389.HAI TEST" Name="FT-Hauser Ambulation Index Functional Test Test Name" DataType="text" nciodm:ExtCodeID="C115389" nciodm:CodeListExtensible="No">
                <Description>
                    <TranslatedText xml:lang="en">Hauser Ambulation Index test name.</TranslatedText>
                </Description>
                <EnumeratedItem CodedValue="HAI01-Ambulation Index" nciodm:ExtCodeID="C115806">
                    <nciodm:CDISCSynonym>HAI01-Ambulation Index</nciodm:CDISCSynonym>
                    <nciodm:CDISCDefinition>Hauser Ambulation Index - Ambulation index.</nciodm:CDISCDefinition>
                    <nciodm:PreferredTerm>HAI - Ambulation Index</nciodm:PreferredTerm>
                </EnumeratedItem>
                <nciodm:CDISCSubmissionValue>HAI TEST</nciodm:CDISCSubmissionValue>
                <nciodm:CDISCSynonym>FT-Hauser Ambulation Index Functional Test Test Name</nciodm:CDISCSynonym>
                <nciodm:PreferredTerm>CDISC Functional Test HAI Test Name Terminology</nciodm:PreferredTerm>
            </CodeList>
            <CodeList OID="CL.C115392.NHPT TESTCD" Name="FT-Nine-Hole Peg Functional Test Test Code" DataType="text" nciodm:ExtCodeID="C115392" nciodm:CodeListExtensible="No">
                <Description>
                    <TranslatedText xml:lang="en">Nine-Hole Peg Test test code.</TranslatedText>
                </Description>
                <EnumeratedItem CodedValue="NHPT0101" nciodm:ExtCodeID="C115807">
                    <nciodm:CDISCSynonym>NHPT01-Time to Complete 9-Hole Peg Test</nciodm:CDISCSynonym>
                    <nciodm:CDISCDefinition>Nine-Hole Peg Test - Time in seconds to complete 9-Hole Peg Test.</nciodm:CDISCDefinition>
                    <nciodm:PreferredTerm>NHPT - Time to Complete 9-Hole Peg Test</nciodm:PreferredTerm>
                </EnumeratedItem>
                <EnumeratedItem CodedValue="NHPT0102" nciodm:ExtCodeID="C115808">
                    <nciodm:CDISCSynonym>NHPT01-More Than Two Attempts</nciodm:CDISCSynonym>
                    <nciodm:CDISCDefinition>Nine-Hole Peg Test - Did it take more than two attempts to get two successful trials?</nciodm:CDISCDefinition>
                    <nciodm:PreferredTerm>NHPT - More Than Two Attempts</nciodm:PreferredTerm>
                </EnumeratedItem>
                <nciodm:CDISCSubmissionValue>NHPT TESTCD</nciodm:CDISCSubmissionValue>
                <nciodm:CDISCSynonym>FT-Nine-Hole Peg Functional Test Test Code</nciodm:CDISCSynonym>
                <nciodm:PreferredTerm>CDISC Functional Test NHPT Test Code Terminology</nciodm:PreferredTerm>
            </CodeList>
            <CodeList OID="CL.C115391.NHPT TEST" Name="FT-Nine-Hole Peg Functional Test Test Name" DataType="text" nciodm:ExtCodeID="C115391" nciodm:CodeListExtensible="No">
                <Description>
                    <TranslatedText xml:lang="en">Nine-Hole Peg Test test name.</TranslatedText>
                </Description>
                <EnumeratedItem CodedValue="NHPT01-More Than Two Attempts" nciodm:ExtCodeID="C115808">
                    <nciodm:CDISCSynonym>NHPT01-More Than Two Attempts</nciodm:CDISCSynonym>
                    <nciodm:CDISCDefinition>Nine-Hole Peg Test - Did it take more than two attempts to get two successful trials?</nciodm:CDISCDefinition>
                    <nciodm:PreferredTerm>NHPT - More Than Two Attempts</nciodm:PreferredTerm>
                </EnumeratedItem>
                <EnumeratedItem CodedValue="NHPT01-Time to Complete 9-Hole Peg Test" nciodm:ExtCodeID="C115807">
                    <nciodm:CDISCSynonym>NHPT01-Time to Complete 9-Hole Peg Test</nciodm:CDISCSynonym>
                    <nciodm:CDISCDefinition>Nine-Hole Peg Test - Time in seconds to complete 9-Hole Peg Test.</nciodm:CDISCDefinition>
                    <nciodm:PreferredTerm>NHPT - Time to Complete 9-Hole Peg Test</nciodm:PreferredTerm>
                </EnumeratedItem>
                <nciodm:CDISCSubmissionValue>NHPT TEST</nciodm:CDISCSubmissionValue>
                <nciodm:CDISCSynonym>FT-Nine-Hole Peg Functional Test Test Name</nciodm:CDISCSynonym>
                <nciodm:PreferredTerm>CDISC Functional Test NHPT Test Name Terminology</nciodm:PreferredTerm>
            </CodeList>
            <CodeList OID="CL.C115394.PASAT TESTCD" Name="FT-Paced Auditory Serial Addition Functional Test Test Code" DataType="text" nciodm:ExtCodeID="C115394" nciodm:CodeListExtensible="No">
                <Description>
                    <TranslatedText xml:lang="en">Paced Auditory Serial Addition Test test code.</TranslatedText>
                </Description>
                <EnumeratedItem CodedValue="PASAT101" nciodm:ExtCodeID="C115809">
                    <nciodm:CDISCSynonym>PASAT1-Total Correct</nciodm:CDISCSynonym>
                    <nciodm:CDISCDefinition>Paced Auditory Serial Addition Test - Total correct.</nciodm:CDISCDefinition>
                    <nciodm:PreferredTerm>PASAT - Total Correct</nciodm:PreferredTerm>
                </EnumeratedItem>
                <EnumeratedItem CodedValue="PASAT102" nciodm:ExtCodeID="C115810">
                    <nciodm:CDISCSynonym>PASAT1-Percent Correct</nciodm:CDISCSynonym>
                    <nciodm:CDISCDefinition>Paced Auditory Serial Addition Test - Percent correct.</nciodm:CDISCDefinition>
                    <nciodm:PreferredTerm>PASAT - Percent Correct</nciodm:PreferredTerm>
                </EnumeratedItem>
                <EnumeratedItem CodedValue="PASAT103" nciodm:ExtCodeID="C115811">
                    <nciodm:CDISCSynonym>PASAT1-More Than One Attempt</nciodm:CDISCSynonym>
                    <nciodm:CDISCDefinition>Paced Auditory Serial Addition Test - Did it take more than one attempt to get one successful trial?</nciodm:CDISCDefinition>
                    <nciodm:PreferredTerm>PASAT - More Than One Attempt</nciodm:PreferredTerm>
                </EnumeratedItem>
                <EnumeratedItem CodedValue="PASAT104" nciodm:ExtCodeID="C115812">
                    <nciodm:CDISCSynonym>PASAT1-Total Correct in First Half</nciodm:CDISCSynonym>
                    <nciodm:CDISCDefinition>Paced Auditory Serial Addition Test - Total correct in first half.</nciodm:CDISCDefinition>
                    <nciodm:PreferredTerm>PASAT - Total Correct in First Half</nciodm:PreferredTerm>
                </EnumeratedItem>
                <EnumeratedItem CodedValue="PASAT105" nciodm:ExtCodeID="C115813">
                    <nciodm:CDISCSynonym>PASAT1-Total Correct in Second Half</nciodm:CDISCSynonym>
                    <nciodm:CDISCDefinition>Paced Auditory Serial Addition Test - Total correct in second half.</nciodm:CDISCDefinition>
                    <nciodm:PreferredTerm>PASAT - Total Correct in Second Half</nciodm:PreferredTerm>
                </EnumeratedItem>
                <EnumeratedItem CodedValue="PASAT106" nciodm:ExtCodeID="C115814">
                    <nciodm:CDISCSynonym>PASAT1-Total Commission Errors</nciodm:CDISCSynonym>
                    <nciodm:CDISCDefinition>Paced Auditory Serial Addition Test - Total commission errors.</nciodm:CDISCDefinition>
                    <nciodm:PreferredTerm>PASAT - Total Commission Errors</nciodm:PreferredTerm>
                </EnumeratedItem>
                <EnumeratedItem CodedValue="PASAT107" nciodm:ExtCodeID="C115815">
                    <nciodm:CDISCSynonym>PASAT1-Total Omission Errors</nciodm:CDISCSynonym>
                    <nciodm:CDISCDefinition>Paced Auditory Serial Addition Test - Total omission errors.</nciodm:CDISCDefinition>
                    <nciodm:PreferredTerm>PASAT - Total Omission Errors</nciodm:PreferredTerm>
                </EnumeratedItem>
                <nciodm:CDISCSubmissionValue>PASAT TESTCD</nciodm:CDISCSubmissionValue>
                <nciodm:CDISCSynonym>FT-Paced Auditory Serial Addition Functional Test Test Code</nciodm:CDISCSynonym>
                <nciodm:PreferredTerm>CDISC Functional Test PASAT Test Code Terminology</nciodm:PreferredTerm>
            </CodeList>
            <CodeList OID="CL.C115393.PASAT TEST" Name="FT-Paced Auditory Serial Addition Functional Test Test Name" DataType="text" nciodm:ExtCodeID="C115393" nciodm:CodeListExtensible="No">
                <Description>
                    <TranslatedText xml:lang="en">Paced Auditory Serial Addition Test test name.</TranslatedText>
                </Description>
                <EnumeratedItem CodedValue="PASAT1-More Than One Attempt" nciodm:ExtCodeID="C115811">
                    <nciodm:CDISCSynonym>PASAT1-More Than One Attempt</nciodm:CDISCSynonym>
                    <nciodm:CDISCDefinition>Paced Auditory Serial Addition Test - Did it take more than one attempt to get one successful trial?</nciodm:CDISCDefinition>
                    <nciodm:PreferredTerm>PASAT - More Than One Attempt</nciodm:PreferredTerm>
                </EnumeratedItem>
                <EnumeratedItem CodedValue="PASAT1-Percent Correct" nciodm:ExtCodeID="C115810">
                    <nciodm:CDISCSynonym>PASAT1-Percent Correct</nciodm:CDISCSynonym>
                    <nciodm:CDISCDefinition>Paced Auditory Serial Addition Test - Percent correct.</nciodm:CDISCDefinition>
                    <nciodm:PreferredTerm>PASAT - Percent Correct</nciodm:PreferredTerm>
                </EnumeratedItem>
                <EnumeratedItem CodedValue="PASAT1-Total Commission Errors" nciodm:ExtCodeID="C115814">
                    <nciodm:CDISCSynonym>PASAT1-Total Commission Errors</nciodm:CDISCSynonym>
                    <nciodm:CDISCDefinition>Paced Auditory Serial Addition Test - Total commission errors.</nciodm:CDISCDefinition>
                    <nciodm:PreferredTerm>PASAT - Total Commission Errors</nciodm:PreferredTerm>
                </EnumeratedItem>
                <EnumeratedItem CodedValue="PASAT1-Total Correct" nciodm:ExtCodeID="C115809">
                    <nciodm:CDISCSynonym>PASAT1-Total Correct</nciodm:CDISCSynonym>
                    <nciodm:CDISCDefinition>Paced Auditory Serial Addition Test - Total correct.</nciodm:CDISCDefinition>
                    <nciodm:PreferredTerm>PASAT - Total Correct</nciodm:PreferredTerm>
                </EnumeratedItem>
                <EnumeratedItem CodedValue="PASAT1-Total Correct in First Half" nciodm:ExtCodeID="C115812">
                    <nciodm:CDISCSynonym>PASAT1-Total Correct in First Half</nciodm:CDISCSynonym>
                    <nciodm:CDISCDefinition>Paced Auditory Serial Addition Test - Total correct in first half.</nciodm:CDISCDefinition>
                    <nciodm:PreferredTerm>PASAT - Total Correct in First Half</nciodm:PreferredTerm>
                </EnumeratedItem>
                <EnumeratedItem CodedValue="PASAT1-Total Correct in Second Half" nciodm:ExtCodeID="C115813">
                    <nciodm:CDISCSynonym>PASAT1-Total Correct in Second Half</nciodm:CDISCSynonym>
                    <nciodm:CDISCDefinition>Paced Auditory Serial Addition Test - Total correct in second half.</nciodm:CDISCDefinition>
                    <nciodm:PreferredTerm>PASAT - Total Correct in Second Half</nciodm:PreferredTerm>
                </EnumeratedItem>
                <EnumeratedItem CodedValue="PASAT1-Total Omission Errors" nciodm:ExtCodeID="C115815">
                    <nciodm:CDISCSynonym>PASAT1-Total Omission Errors</nciodm:CDISCSynonym>
                    <nciodm:CDISCDefinition>Paced Auditory Serial Addition Test - Total omission errors.</nciodm:CDISCDefinition>
                    <nciodm:PreferredTerm>PASAT - Total Omission Errors</nciodm:PreferredTerm>
                </EnumeratedItem>
                <nciodm:CDISCSubmissionValue>PASAT TEST</nciodm:CDISCSubmissionValue>
                <nciodm:CDISCSynonym>FT-Paced Auditory Serial Addition Functional Test Test Name</nciodm:CDISCSynonym>
                <nciodm:PreferredTerm>CDISC Functional Test PASAT Test Name Terminology</nciodm:PreferredTerm>
            </CodeList>
            <CodeList OID="CL.C115396.SDMT TESTCD" Name="FT-Symbol Digit Modalities Functional Test Test Code" DataType="text" nciodm:ExtCodeID="C115396" nciodm:CodeListExtensible="No">
                <Description>
                    <TranslatedText xml:lang="en">Symbol Digit Modalities Test test code.</TranslatedText>
                </Description>
                <EnumeratedItem CodedValue="SDMT0101" nciodm:ExtCodeID="C115816">
                    <nciodm:CDISCSynonym>SDMT01-Total Score</nciodm:CDISCSynonym>
                    <nciodm:CDISCDefinition>Symbol Digit Modalities Test - Total score.</nciodm:CDISCDefinition>
                    <nciodm:PreferredTerm>SDMT - Total Score</nciodm:PreferredTerm>
                </EnumeratedItem>
                <nciodm:CDISCSubmissionValue>SDMT TESTCD</nciodm:CDISCSubmissionValue>
                <nciodm:CDISCSynonym>FT-Symbol Digit Modalities Functional Test Test Code</nciodm:CDISCSynonym>
                <nciodm:PreferredTerm>CDISC Functional Test SDMT Test Code Terminology</nciodm:PreferredTerm>
            </CodeList>
            <CodeList OID="CL.C115395.SDMT TEST" Name="FT-Symbol Digit Modalities Functional Test Test Name" DataType="text" nciodm:ExtCodeID="C115395" nciodm:CodeListExtensible="No">
                <Description>
                    <TranslatedText xml:lang="en">Symbol Digit Modalities Test test name.</TranslatedText>
                </Description>
                <EnumeratedItem CodedValue="SDMT01-Total Score" nciodm:ExtCodeID="C115816">
                    <nciodm:CDISCSynonym>SDMT01-Total Score</nciodm:CDISCSynonym>
                    <nciodm:CDISCDefinition>Symbol Digit Modalities Test - Total score.</nciodm:CDISCDefinition>
                    <nciodm:PreferredTerm>SDMT - Total Score</nciodm:PreferredTerm>
                </EnumeratedItem>
                <nciodm:CDISCSubmissionValue>SDMT TEST</nciodm:CDISCSubmissionValue>
                <nciodm:CDISCSynonym>FT-Symbol Digit Modalities Functional Test Test Name</nciodm:CDISCSynonym>
                <nciodm:PreferredTerm>CDISC Functional Test SDMT Test Name Terminology</nciodm:PreferredTerm>
            </CodeList>
            <CodeList OID="CL.C115398.T25FW TESTCD" Name="FT-Timed 25-Foot Walk Functional Test Test Code" DataType="text" nciodm:ExtCodeID="C115398" nciodm:CodeListExtensible="No">
                <Description>
                    <TranslatedText xml:lang="en">Timed 25-Foot Walk Test test code.</TranslatedText>
                </Description>
                <EnumeratedItem CodedValue="T25FW101" nciodm:ExtCodeID="C115817">
                    <nciodm:CDISCSynonym>T25FW1-Time to Complete 25-Foot Walk</nciodm:CDISCSynonym>
                    <nciodm:CDISCDefinition>Timed 25-Foot Walk - Time in seconds to complete 25-foot walk.</nciodm:CDISCDefinition>
                    <nciodm:PreferredTerm>T25FW - Time to Complete 25-Foot Walk</nciodm:PreferredTerm>
                </EnumeratedItem>
                <EnumeratedItem CodedValue="T25FW102" nciodm:ExtCodeID="C115818">
                    <nciodm:CDISCSynonym>T25FW1-More Than Two Attempts</nciodm:CDISCSynonym>
                    <nciodm:CDISCDefinition>Timed 25-Foot Walk - Did it take more than two attempts to get two successful trials?</nciodm:CDISCDefinition>
                    <nciodm:PreferredTerm>T25FW - More Than Two Attempts</nciodm:PreferredTerm>
                </EnumeratedItem>
                <nciodm:CDISCSubmissionValue>T25FW TESTCD</nciodm:CDISCSubmissionValue>
                <nciodm:CDISCSynonym>FT-Timed 25-Foot Walk Functional Test Test Code</nciodm:CDISCSynonym>
                <nciodm:PreferredTerm>CDISC Functional Test T25FW Test Code Terminology</nciodm:PreferredTerm>
            </CodeList>
            <CodeList OID="CL.C115397.T25FW TEST" Name="FT-Timed 25-Foot Walk Functional Test Test Name" DataType="text" nciodm:ExtCodeID="C115397" nciodm:CodeListExtensible="No">
                <Description>
                    <TranslatedText xml:lang="en">Timed 25-Foot Walk Test test name.</TranslatedText>
                </Description>
                <EnumeratedItem CodedValue="T25FW1-More Than Two Attempts" nciodm:ExtCodeID="C115818">
                    <nciodm:CDISCSynonym>T25FW1-More Than Two Attempts</nciodm:CDISCSynonym>
                    <nciodm:CDISCDefinition>Timed 25-Foot Walk - Did it take more than two attempts to get two successful trials?</nciodm:CDISCDefinition>
                    <nciodm:PreferredTerm>T25FW - More Than Two Attempts</nciodm:PreferredTerm>
                </EnumeratedItem>
                <EnumeratedItem CodedValue="T25FW1-Time to Complete 25-Foot Walk" nciodm:ExtCodeID="C115817">
                    <nciodm:CDISCSynonym>T25FW1-Time to Complete 25-Foot Walk</nciodm:CDISCSynonym>
                    <nciodm:CDISCDefinition>Timed 25-Foot Walk - Time in seconds to complete 25-foot walk.</nciodm:CDISCDefinition>
                    <nciodm:PreferredTerm>T25FW - Time to Complete 25-Foot Walk</nciodm:PreferredTerm>
                </EnumeratedItem>
                <nciodm:CDISCSubmissionValue>T25FW TEST</nciodm:CDISCSubmissionValue>
                <nciodm:CDISCSynonym>FT-Timed 25-Foot Walk Functional Test Test Name</nciodm:CDISCSynonym>
                <nciodm:PreferredTerm>CDISC Functional Test T25FW Test Name Terminology</nciodm:PreferredTerm>
            </CodeList>
            <CodeList OID="CL.C115400.TUG TESTCD" Name="FT-Timed Up and Go Functional Test Test Code" DataType="text" nciodm:ExtCodeID="C115400" nciodm:CodeListExtensible="No">
                <Description>
                    <TranslatedText xml:lang="en">Timed Up and Go Test test code.</TranslatedText>
                </Description>
                <EnumeratedItem CodedValue="TUG0101" nciodm:ExtCodeID="C115819">
                    <nciodm:CDISCSynonym>TUG01-Time to Complete TUG Test</nciodm:CDISCSynonym>
                    <nciodm:CDISCDefinition>Timed Up and Go - Time in seconds to complete TUG test.</nciodm:CDISCDefinition>
                    <nciodm:PreferredTerm>TUG - Time to Complete TUG Test</nciodm:PreferredTerm>
                </EnumeratedItem>
                <nciodm:CDISCSubmissionValue>TUG TESTCD</nciodm:CDISCSubmissionValue>
                <nciodm:CDISCSynonym>FT-Timed Up and Go Functional Test Test Code</nciodm:CDISCSynonym>
                <nciodm:PreferredTerm>CDISC Functional Test TUG Test Code Terminology</nciodm:PreferredTerm>
            </CodeList>
            <CodeList OID="CL.C115399.TUG TEST" Name="FT-Timed Up and Go Functional Test Test Name" DataType="text" nciodm:ExtCodeID="C115399" nciodm:CodeListExtensible="No">
                <Description>
                    <TranslatedText xml:lang="en">Timed Up and Go Test test name.</TranslatedText>
                </Description>
                <EnumeratedItem CodedValue="TUG01-Time to Complete TUG Test" nciodm:ExtCodeID="C115819">
                    <nciodm:CDISCSynonym>TUG01-Time to Complete TUG Test</nciodm:CDISCSynonym>
                    <nciodm:CDISCDefinition>Timed Up and Go - Time in seconds to complete TUG test.</nciodm:CDISCDefinition>
                    <nciodm:PreferredTerm>TUG - Time to Complete TUG Test</nciodm:PreferredTerm>
                </EnumeratedItem>
                <nciodm:CDISCSubmissionValue>TUG TEST</nciodm:CDISCSubmissionValue>
                <nciodm:CDISCSynonym>FT-Timed Up and Go Functional Test Test Name</nciodm:CDISCSynonym>
                <nciodm:PreferredTerm>CDISC Functional Test TUG Test Name Terminology</nciodm:PreferredTerm>
            </CodeList>
            <CodeList OID="CL.C101805.AIMS TESTCD" Name="QS-Abnormal Involuntary Movement Scale Test Code" DataType="text" nciodm:ExtCodeID="C101805" nciodm:CodeListExtensible="No">
                <Description>
                    <TranslatedText xml:lang="en">Abnormal Involuntary Movement Scale test code.</TranslatedText>
                </Description>
                <EnumeratedItem CodedValue="AIMS0101" nciodm:ExtCodeID="C102034">
                    <nciodm:CDISCSynonym>AIMS01-Muscles of Facial Expression</nciodm:CDISCSynonym>
                    <nciodm:CDISCDefinition>Abnormal Involuntary Movement Scale - Facial and Oral Movements, Muscles of facial expression, e.g., movements of forehead, eyebrows, periorbital area, cheeks. Include frowning, blinking, grimacing of upper face.</nciodm:CDISCDefinition>
                    <nciodm:PreferredTerm>AIMS - Muscles of Facial Expression</nciodm:PreferredTerm>
                </EnumeratedItem>
                <EnumeratedItem CodedValue="AIMS0102" nciodm:ExtCodeID="C102035">
                    <nciodm:CDISCSynonym>AIMS01-Lips and Perioral Area</nciodm:CDISCSynonym>
                    <nciodm:CDISCDefinition>Abnormal Involuntary Movement Scale - Facial and Oral Movements, Lips and perioral area, e.g., puckering, pouting, smacking.</nciodm:CDISCDefinition>
                    <nciodm:PreferredTerm>AIMS - Lips and Perioral Area</nciodm:PreferredTerm>
                </EnumeratedItem>
                <EnumeratedItem CodedValue="AIMS0103" nciodm:ExtCodeID="C102036">
                    <nciodm:CDISCSynonym>AIMS01-Jaw</nciodm:CDISCSynonym>
                    <nciodm:CDISCDefinition>Abnormal Involuntary Movement Scale - Facial and Oral Movements, Jaw, e.g., biting, clenching, chewing, mouth opening, lateral movement.</nciodm:CDISCDefinition>
                    <nciodm:PreferredTerm>AIMS - Jaw</nciodm:PreferredTerm>
                </EnumeratedItem>
                <EnumeratedItem CodedValue="AIMS0104" nciodm:ExtCodeID="C102037">
                    <nciodm:CDISCSynonym>AIMS01-Tongue</nciodm:CDISCSynonym>
                    <nciodm:CDISCDefinition>Abnormal Involuntary Movement Scale - Facial and Oral Movements, Tongue. Rate only increase in movement both in and out of mouth, not inability to sustain movement.</nciodm:CDISCDefinition>
                    <nciodm:PreferredTerm>AIMS - Tongue</nciodm:PreferredTerm>
                </EnumeratedItem>
                <EnumeratedItem CodedValue="AIMS0105" nciodm:ExtCodeID="C102038">
                    <nciodm:CDISCSynonym>AIMS01-Upper Extremities</nciodm:CDISCSynonym>
                    <nciodm:CDISCDefinition>Abnormal Involuntary Movement Scale - Extremity Movements, Upper (arms, wrists, hands, fingers). Include movements that are choreic (rapid, objectively purposeless, irregular, spontaneous) or athetoid (slow, irregular, complex, serpentine). Do not include tremor (repetitive, regular, rhythmic movements).</nciodm:CDISCDefinition>
                    <nciodm:PreferredTerm>AIMS - Upper Extremities</nciodm:PreferredTerm>
                </EnumeratedItem>
                <EnumeratedItem CodedValue="AIMS0106" nciodm:ExtCodeID="C102039">
                    <nciodm:CDISCSynonym>AIMS01-Lower Extremities</nciodm:CDISCSynonym>
                    <nciodm:CDISCDefinition>Abnormal Involuntary Movement Scale - Extremity Movements, Lower (legs, knees, ankles, toes), e.g., lateral knee movement, foot tapping, heel dropping, foot squirming, inversion and eversion of foot.</nciodm:CDISCDefinition>
                    <nciodm:PreferredTerm>AIMS - Lower Extremities</nciodm:PreferredTerm>
                </EnumeratedItem>
                <EnumeratedItem CodedValue="AIMS0107" nciodm:ExtCodeID="C102040">
                    <nciodm:CDISCSynonym>AIMS01-Neck, Shoulders, Hips</nciodm:CDISCSynonym>
                    <nciodm:CDISCDefinition>Abnormal Involuntary Movement Scale - Trunk Movements, Neck, shoulders, hips, e.g., rocking, twisting, squirming, pelvic gyrations. Include diaphragmatic movements.</nciodm:CDISCDefinition>
                    <nciodm:PreferredTerm>AIMS - Neck, Shoulders, Hips</nciodm:PreferredTerm>
                </EnumeratedItem>
                <EnumeratedItem CodedValue="AIMS0108" nciodm:ExtCodeID="C102041">
                    <nciodm:CDISCSynonym>AIMS01-Severity of Abnormal Movements</nciodm:CDISCSynonym>
                    <nciodm:CDISCDefinition>Abnormal Involuntary Movement Scale - Global Judgments, Severity of abnormal movements, based on the highest single score on the above items.</nciodm:CDISCDefinition>
                    <nciodm:PreferredTerm>AIMS - Severity of Abnormal Movements</nciodm:PreferredTerm>
                </EnumeratedItem>
                <EnumeratedItem CodedValue="AIMS0109" nciodm:ExtCodeID="C102042">
                    <nciodm:CDISCSynonym>AIMS01-Incapacitation due Abn Movements</nciodm:CDISCSynonym>
                    <nciodm:CDISCDefinition>Abnormal Involuntary Movement Scale - Global Judgments, Incapacitation due to abnormal movements.</nciodm:CDISCDefinition>
                    <nciodm:PreferredTerm>AIMS - Incapacitation Due to Abnormal Movements</nciodm:PreferredTerm>
                </EnumeratedItem>
                <EnumeratedItem CodedValue="AIMS0110" nciodm:ExtCodeID="C102043">
                    <nciodm:CDISCSynonym>AIMS01-Patient Awareness Abn Movements</nciodm:CDISCSynonym>
                    <nciodm:CDISCDefinition>Abnormal Involuntary Movement Scale - Global Judgments, Patient's awareness of abnormal movements.</nciodm:CDISCDefinition>
                    <nciodm:PreferredTerm>AIMS - Patient's Awareness of Abnormal Movements</nciodm:PreferredTerm>
                </EnumeratedItem>
                <EnumeratedItem CodedValue="AIMS0111" nciodm:ExtCodeID="C102044">
                    <nciodm:CDISCSynonym>AIMS01-Current Problems Teeth/Dentures</nciodm:CDISCSynonym>
                    <nciodm:CDISCDefinition>Abnormal Involuntary Movement Scale - Dental Status, Current problems with teeth and/or dentures.</nciodm:CDISCDefinition>
                    <nciodm:PreferredTerm>AIMS - Current Teeth/Dentures Problems</nciodm:PreferredTerm>
                </EnumeratedItem>
                <EnumeratedItem CodedValue="AIMS0112" nciodm:ExtCodeID="C102045">
                    <nciodm:CDISCSynonym>AIMS01-Patient Usually Wear Dentures</nciodm:CDISCSynonym>
                    <nciodm:CDISCDefinition>Abnormal Involuntary Movement Scale - Dental Status, Does patient usually wear dentures?</nciodm:CDISCDefinition>
                    <nciodm:PreferredTerm>AIMS - Patient Usually Wears Dentures</nciodm:PreferredTerm>
                </EnumeratedItem>
                <nciodm:CDISCSubmissionValue>AIMS TESTCD</nciodm:CDISCSubmissionValue>
                <nciodm:CDISCSynonym>QS-Abnormal Involuntary Movement Scale Test Code</nciodm:CDISCSynonym>
                <nciodm:PreferredTerm>CDISC Questionnaire AIMS Test Code Terminology</nciodm:PreferredTerm>
            </CodeList>
            <CodeList OID="CL.C101806.AIMS TEST" Name="QS-Abnormal Involuntary Movement Scale Test Name" DataType="text" nciodm:ExtCodeID="C101806" nciodm:CodeListExtensible="No">
                <Description>
                    <TranslatedText xml:lang="en">Abnormal Involuntary Movement Scale test name.</TranslatedText>
                </Description>
                <EnumeratedItem CodedValue="AIMS01-Current Problems Teeth/Dentures" nciodm:ExtCodeID="C102044">
                    <nciodm:CDISCSynonym>AIMS01-Current Problems Teeth/Dentures</nciodm:CDISCSynonym>
                    <nciodm:CDISCDefinition>Abnormal Involuntary Movement Scale - Dental Status, Current problems with teeth and/or dentures.</nciodm:CDISCDefinition>
                    <nciodm:PreferredTerm>AIMS - Current Teeth/Dentures Problems</nciodm:PreferredTerm>
                </EnumeratedItem>
                <EnumeratedItem CodedValue="AIMS01-Incapacitation due Abn Movements" nciodm:ExtCodeID="C102042">
                    <nciodm:CDISCSynonym>AIMS01-Incapacitation due Abn Movements</nciodm:CDISCSynonym>
                    <nciodm:CDISCDefinition>Abnormal Involuntary Movement Scale - Global Judgments, Incapacitation due to abnormal movements.</nciodm:CDISCDefinition>
                    <nciodm:PreferredTerm>AIMS - Incapacitation Due to Abnormal Movements</nciodm:PreferredTerm>
                </EnumeratedItem>
                <EnumeratedItem CodedValue="AIMS01-Jaw" nciodm:ExtCodeID="C102036">
                    <nciodm:CDISCSynonym>AIMS01-Jaw</nciodm:CDISCSynonym>
                    <nciodm:CDISCDefinition>Abnormal Involuntary Movement Scale - Facial and Oral Movements, Jaw, e.g., biting, clenching, chewing, mouth opening, lateral movement.</nciodm:CDISCDefinition>
                    <nciodm:PreferredTerm>AIMS - Jaw</nciodm:PreferredTerm>
                </EnumeratedItem>
                <EnumeratedItem CodedValue="AIMS01-Lips and Perioral Area" nciodm:ExtCodeID="C102035">
                    <nciodm:CDISCSynonym>AIMS01-Lips and Perioral Area</nciodm:CDISCSynonym>
                    <nciodm:CDISCDefinition>Abnormal Involuntary Movement Scale - Facial and Oral Movements, Lips and perioral area, e.g., puckering, pouting, smacking.</nciodm:CDISCDefinition>
                    <nciodm:PreferredTerm>AIMS - Lips and Perioral Area</nciodm:PreferredTerm>
                </EnumeratedItem>
                <EnumeratedItem CodedValue="AIMS01-Lower Extremities" nciodm:ExtCodeID="C102039">
                    <nciodm:CDISCSynonym>AIMS01-Lower Extremities</nciodm:CDISCSynonym>
                    <nciodm:CDISCDefinition>Abnormal Involuntary Movement Scale - Extremity Movements, Lower (legs, knees, ankles, toes), e.g., lateral knee movement, foot tapping, heel dropping, foot squirming, inversion and eversion of foot.</nciodm:CDISCDefinition>
                    <nciodm:PreferredTerm>AIMS - Lower Extremities</nciodm:PreferredTerm>
                </EnumeratedItem>
                <EnumeratedItem CodedValue="AIMS01-Muscles of Facial Expression" nciodm:ExtCodeID="C102034">
                    <nciodm:CDISCSynonym>AIMS01-Muscles of Facial Expression</nciodm:CDISCSynonym>
                    <nciodm:CDISCDefinition>Abnormal Involuntary Movement Scale - Facial and Oral Movements, Muscles of facial expression, e.g., movements of forehead, eyebrows, periorbital area, cheeks. Include frowning, blinking, grimacing of upper face.</nciodm:CDISCDefinition>
                    <nciodm:PreferredTerm>AIMS - Muscles of Facial Expression</nciodm:PreferredTerm>
                </EnumeratedItem>
                <EnumeratedItem CodedValue="AIMS01-Neck, Shoulders, Hips" nciodm:ExtCodeID="C102040">
                    <nciodm:CDISCSynonym>AIMS01-Neck, Shoulders, Hips</nciodm:CDISCSynonym>
                    <nciodm:CDISCDefinition>Abnormal Involuntary Movement Scale - Trunk Movements, Neck, shoulders, hips, e.g., rocking, twisting, squirming, pelvic gyrations. Include diaphragmatic movements.</nciodm:CDISCDefinition>
                    <nciodm:PreferredTerm>AIMS - Neck, Shoulders, Hips</nciodm:PreferredTerm>
                </EnumeratedItem>
                <EnumeratedItem CodedValue="AIMS01-Patient Awareness Abn Movements" nciodm:ExtCodeID="C102043">
                    <nciodm:CDISCSynonym>AIMS01-Patient Awareness Abn Movements</nciodm:CDISCSynonym>
                    <nciodm:CDISCDefinition>Abnormal Involuntary Movement Scale - Global Judgments, Patient's awareness of abnormal movements.</nciodm:CDISCDefinition>
                    <nciodm:PreferredTerm>AIMS - Patient's Awareness of Abnormal Movements</nciodm:PreferredTerm>
                </EnumeratedItem>
                <EnumeratedItem CodedValue="AIMS01-Patient Usually Wear Dentures" nciodm:ExtCodeID="C102045">
                    <nciodm:CDISCSynonym>AIMS01-Patient Usually Wear Dentures</nciodm:CDISCSynonym>
                    <nciodm:CDISCDefinition>Abnormal Involuntary Movement Scale - Dental Status, Does patient usually wear dentures?</nciodm:CDISCDefinition>
                    <nciodm:PreferredTerm>AIMS - Patient Usually Wears Dentures</nciodm:PreferredTerm>
                </EnumeratedItem>
                <EnumeratedItem CodedValue="AIMS01-Severity of Abnormal Movements" nciodm:ExtCodeID="C102041">
                    <nciodm:CDISCSynonym>AIMS01-Severity of Abnormal Movements</nciodm:CDISCSynonym>
                    <nciodm:CDISCDefinition>Abnormal Involuntary Movement Scale - Global Judgments, Severity of abnormal movements, based on the highest single score on the above items.</nciodm:CDISCDefinition>
                    <nciodm:PreferredTerm>AIMS - Severity of Abnormal Movements</nciodm:PreferredTerm>
                </EnumeratedItem>
                <EnumeratedItem CodedValue="AIMS01-Tongue" nciodm:ExtCodeID="C102037">
                    <nciodm:CDISCSynonym>AIMS01-Tongue</nciodm:CDISCSynonym>
                    <nciodm:CDISCDefinition>Abnormal Involuntary Movement Scale - Facial and Oral Movements, Tongue. Rate only increase in movement both in and out of mouth, not inability to sustain movement.</nciodm:CDISCDefinition>
                    <nciodm:PreferredTerm>AIMS - Tongue</nciodm:PreferredTerm>
                </EnumeratedItem>
                <EnumeratedItem CodedValue="AIMS01-Upper Extremities" nciodm:ExtCodeID="C102038">
                    <nciodm:CDISCSynonym>AIMS01-Upper Extremities</nciodm:CDISCSynonym>
                    <nciodm:CDISCDefinition>Abnormal Involuntary Movement Scale - Extremity Movements, Upper (arms, wrists, hands, fingers). Include movements that are choreic (rapid, objectively purposeless, irregular, spontaneous) or athetoid (slow, irregular, complex, serpentine). Do not include tremor (repetitive, regular, rhythmic movements).</nciodm:CDISCDefinition>
                    <nciodm:PreferredTerm>AIMS - Upper Extremities</nciodm:PreferredTerm>
                </EnumeratedItem>
                <nciodm:CDISCSubmissionValue>AIMS TEST</nciodm:CDISCSubmissionValue>
                <nciodm:CDISCSynonym>QS-Abnormal Involuntary Movement Scale Test Name</nciodm:CDISCSynonym>
                <nciodm:PreferredTerm>CDISC Questionnaire AIMS Test Name Terminology</nciodm:PreferredTerm>
            </CodeList>
            <CodeList OID="CL.C101807.AVLT TESTCD" Name="QS-ADNI AVLT Test Code" DataType="text" nciodm:ExtCodeID="C101807" nciodm:CodeListExtensible="No">
                <Description>
                    <TranslatedText xml:lang="en">ADNI AVLT test code.</TranslatedText>
                </Description>
                <EnumeratedItem CodedValue="AVL01001" nciodm:ExtCodeID="C101896">
                    <nciodm:CDISCSynonym>AVL01-List A Recall 1 Word 1</nciodm:CDISCSynonym>
                    <nciodm:CDISCDefinition>Auditory Verbal Learning Test Version A - List A, Recall 1, Word 1.</nciodm:CDISCDefinition>
                    <nciodm:PreferredTerm>ADNI AVLT - List A Recall 1 Word 1</nciodm:PreferredTerm>
                </EnumeratedItem>
                <EnumeratedItem CodedValue="AVL01002" nciodm:ExtCodeID="C101897">
                    <nciodm:CDISCSynonym>AVL01-List A Recall 1 Word 2</nciodm:CDISCSynonym>
                    <nciodm:CDISCDefinition>Auditory Verbal Learning Test Version A - List A, Recall 1, Word 2.</nciodm:CDISCDefinition>
                    <nciodm:PreferredTerm>ADNI AVLT - List A Recall 1 Word 2</nciodm:PreferredTerm>
                </EnumeratedItem>
                <EnumeratedItem CodedValue="AVL01003" nciodm:ExtCodeID="C101898">
                    <nciodm:CDISCSynonym>AVL01-List A Recall 1 Word 3</nciodm:CDISCSynonym>
                    <nciodm:CDISCDefinition>Auditory Verbal Learning Test Version A - List A, Recall 1, Word 3.</nciodm:CDISCDefinition>
                    <nciodm:PreferredTerm>ADNI AVLT - List A Recall 1 Word 3</nciodm:PreferredTerm>
                </EnumeratedItem>
                <EnumeratedItem CodedValue="AVL01004" nciodm:ExtCodeID="C101899">
                    <nciodm:CDISCSynonym>AVL01-List A Recall 1 Word 4</nciodm:CDISCSynonym>
                    <nciodm:CDISCDefinition>Auditory Verbal Learning Test Version A - List A, Recall 1, Word 4.</nciodm:CDISCDefinition>
                    <nciodm:PreferredTerm>ADNI AVLT - List A Recall 1 Word 4</nciodm:PreferredTerm>
                </EnumeratedItem>
                <EnumeratedItem CodedValue="AVL01005" nciodm:ExtCodeID="C101900">
                    <nciodm:CDISCSynonym>AVL01-List A Recall 1 Word 5</nciodm:CDISCSynonym>
                    <nciodm:CDISCDefinition>Auditory Verbal Learning Test Version A - List A, Recall 1, Word 5.</nciodm:CDISCDefinition>
                    <nciodm:PreferredTerm>ADNI AVLT - List A Recall 1 Word 5</nciodm:PreferredTerm>
                </EnumeratedItem>
                <EnumeratedItem CodedValue="AVL01006" nciodm:ExtCodeID="C101901">
                    <nciodm:CDISCSynonym>AVL01-List A Recall 1 Word 6</nciodm:CDISCSynonym>
                    <nciodm:CDISCDefinition>Auditory Verbal Learning Test Version A - List A, Recall 1, Word 6.</nciodm:CDISCDefinition>
                    <nciodm:PreferredTerm>ADNI AVLT - List A Recall 1 Word 6</nciodm:PreferredTerm>
                </EnumeratedItem>
                <EnumeratedItem CodedValue="AVL01007" nciodm:ExtCodeID="C101902">
                    <nciodm:CDISCSynonym>AVL01-List A Recall 1 Word 7</nciodm:CDISCSynonym>
                    <nciodm:CDISCDefinition>Auditory Verbal Learning Test Version A - List A, Recall 1, Word 7.</nciodm:CDISCDefinition>
                    <nciodm:PreferredTerm>ADNI AVLT - List A Recall 1 Word 7</nciodm:PreferredTerm>
                </EnumeratedItem>
                <EnumeratedItem CodedValue="AVL01008" nciodm:ExtCodeID="C101903">
                    <nciodm:CDISCSynonym>AVL01-List A Recall 1 Word 8</nciodm:CDISCSynonym>
                    <nciodm:CDISCDefinition>Auditory Verbal Learning Test Version A - List A, Recall 1, Word 8.</nciodm:CDISCDefinition>
                    <nciodm:PreferredTerm>ADNI AVLT - List A Recall 1 Word 8</nciodm:PreferredTerm>
                </EnumeratedItem>
                <EnumeratedItem CodedValue="AVL01009" nciodm:ExtCodeID="C101904">
                    <nciodm:CDISCSynonym>AVL01-List A Recall 1 Word 9</nciodm:CDISCSynonym>
                    <nciodm:CDISCDefinition>Auditory Verbal Learning Test Version A - List A, Recall 1, Word 9.</nciodm:CDISCDefinition>
                    <nciodm:PreferredTerm>ADNI AVLT - List A Recall 1 Word 9</nciodm:PreferredTerm>
                </EnumeratedItem>
                <EnumeratedItem CodedValue="AVL01010" nciodm:ExtCodeID="C101905">
                    <nciodm:CDISCSynonym>AVL01-List A Recall 1 Word 10</nciodm:CDISCSynonym>
                    <nciodm:CDISCDefinition>Auditory Verbal Learning Test Version A - List A, Recall 1, Word 10.</nciodm:CDISCDefinition>
                    <nciodm:PreferredTerm>ADNI AVLT - List A Recall 1 Word 10</nciodm:PreferredTerm>
                </EnumeratedItem>
                <EnumeratedItem CodedValue="AVL01011" nciodm:ExtCodeID="C101906">
                    <nciodm:CDISCSynonym>AVL01-List A Recall 1 Word 11</nciodm:CDISCSynonym>
                    <nciodm:CDISCDefinition>Auditory Verbal Learning Test Version A - List A, Recall 1, Word 11.</nciodm:CDISCDefinition>
                    <nciodm:PreferredTerm>ADNI AVLT - List A Recall 1 Word 11</nciodm:PreferredTerm>
                </EnumeratedItem>
                <EnumeratedItem CodedValue="AVL01012" nciodm:ExtCodeID="C101907">
                    <nciodm:CDISCSynonym>AVL01-List A Recall 1 Word 12</nciodm:CDISCSynonym>
                    <nciodm:CDISCDefinition>Auditory Verbal Learning Test Version A - List A, Recall 1, Word 12.</nciodm:CDISCDefinition>
                    <nciodm:PreferredTerm>ADNI AVLT - List A Recall 1 Word 12</nciodm:PreferredTerm>
                </EnumeratedItem>
                <EnumeratedItem CodedValue="AVL01013" nciodm:ExtCodeID="C101908">
                    <nciodm:CDISCSynonym>AVL01-List A Recall 1 Word 13</nciodm:CDISCSynonym>
                    <nciodm:CDISCDefinition>Auditory Verbal Learning Test Version A - List A, Recall 1, Word 13.</nciodm:CDISCDefinition>
                    <nciodm:PreferredTerm>ADNI AVLT - List A Recall 1 Word 13</nciodm:PreferredTerm>
                </EnumeratedItem>
                <EnumeratedItem CodedValue="AVL01014" nciodm:ExtCodeID="C101909">
                    <nciodm:CDISCSynonym>AVL01-List A Recall 1 Word 14</nciodm:CDISCSynonym>
                    <nciodm:CDISCDefinition>Auditory Verbal Learning Test Version A - List A, Recall 1, Word 14.</nciodm:CDISCDefinition>
                    <nciodm:PreferredTerm>ADNI AVLT - List A Recall 1 Word 14</nciodm:PreferredTerm>
                </EnumeratedItem>
                <EnumeratedItem CodedValue="AVL01015" nciodm:ExtCodeID="C101910">
                    <nciodm:CDISCSynonym>AVL01-List A Recall 1 Word 15</nciodm:CDISCSynonym>
                    <nciodm:CDISCDefinition>Auditory Verbal Learning Test Version A - List A, Recall 1, Word 15.</nciodm:CDISCDefinition>
                    <nciodm:PreferredTerm>ADNI AVLT - List A Recall 1 Word 15</nciodm:PreferredTerm>
                </EnumeratedItem>
                <EnumeratedItem CodedValue="AVL01016" nciodm:ExtCodeID="C101911">
                    <nciodm:CDISCSynonym>AVL01-List A Recall 1 Total</nciodm:CDISCSynonym>
                    <nciodm:CDISCDefinition>Auditory Verbal Learning Test Version A - The number of words recalled from List A, first attempt.</nciodm:CDISCDefinition>
                    <nciodm:PreferredTerm>ADNI AVLT - List A Recall 1 Total</nciodm:PreferredTerm>
                </EnumeratedItem>
                <EnumeratedItem CodedValue="AVL01017" nciodm:ExtCodeID="C101912">
                    <nciodm:CDISCSynonym>AVL01-List A Intrusions 1</nciodm:CDISCSynonym>
                    <nciodm:CDISCDefinition>Auditory Verbal Learning Test Version A - The number of intrusions while recalling List A, first attempt.</nciodm:CDISCDefinition>
                    <nciodm:PreferredTerm>ADNI AVLT - List A Intrusions 1</nciodm:PreferredTerm>
                </EnumeratedItem>
                <EnumeratedItem CodedValue="AVL01018" nciodm:ExtCodeID="C101913">
                    <nciodm:CDISCSynonym>AVL01-List A Recall 2 Word 1</nciodm:CDISCSynonym>
                    <nciodm:CDISCDefinition>Auditory Verbal Learning Test Version A - List A, Recall 2, Word 1.</nciodm:CDISCDefinition>
                    <nciodm:PreferredTerm>ADNI AVLT - List A Recall 2 Word 1</nciodm:PreferredTerm>
                </EnumeratedItem>
                <EnumeratedItem CodedValue="AVL01019" nciodm:ExtCodeID="C101914">
                    <nciodm:CDISCSynonym>AVL01-List A Recall 2 Word 2</nciodm:CDISCSynonym>
                    <nciodm:CDISCDefinition>Auditory Verbal Learning Test Version A - List A, Recall 2, Word 2.</nciodm:CDISCDefinition>
                    <nciodm:PreferredTerm>ADNI AVLT - List A Recall 2 Word 2</nciodm:PreferredTerm>
                </EnumeratedItem>
                <EnumeratedItem CodedValue="AVL01020" nciodm:ExtCodeID="C101915">
                    <nciodm:CDISCSynonym>AVL01-List A Recall 2 Word 3</nciodm:CDISCSynonym>
                    <nciodm:CDISCDefinition>Auditory Verbal Learning Test Version A - List A, Recall 2, Word 3.</nciodm:CDISCDefinition>
                    <nciodm:PreferredTerm>ADNI AVLT - List A Recall 2 Word 3</nciodm:PreferredTerm>
                </EnumeratedItem>
                <EnumeratedItem CodedValue="AVL01021" nciodm:ExtCodeID="C101916">
                    <nciodm:CDISCSynonym>AVL01-List A Recall 2 Word 4</nciodm:CDISCSynonym>
                    <nciodm:CDISCDefinition>Auditory Verbal Learning Test Version A - List A, Recall 2, Word 4.</nciodm:CDISCDefinition>
                    <nciodm:PreferredTerm>ADNI AVLT - List A Recall 2 Word 4</nciodm:PreferredTerm>
                </EnumeratedItem>
                <EnumeratedItem CodedValue="AVL01022" nciodm:ExtCodeID="C101917">
                    <nciodm:CDISCSynonym>AVL01-List A Recall 2 Word 5</nciodm:CDISCSynonym>
                    <nciodm:CDISCDefinition>Auditory Verbal Learning Test Version A - List A, Recall 2, Word 5.</nciodm:CDISCDefinition>
                    <nciodm:PreferredTerm>ADNI AVLT - List A Recall 2 Word 5</nciodm:PreferredTerm>
                </EnumeratedItem>
                <EnumeratedItem CodedValue="AVL01023" nciodm:ExtCodeID="C101918">
                    <nciodm:CDISCSynonym>AVL01-List A Recall 2 Word 6</nciodm:CDISCSynonym>
                    <nciodm:CDISCDefinition>Auditory Verbal Learning Test Version A - List A, Recall 2, Word 6.</nciodm:CDISCDefinition>
                    <nciodm:PreferredTerm>ADNI AVLT - List A Recall 2 Word 6</nciodm:PreferredTerm>
                </EnumeratedItem>
                <EnumeratedItem CodedValue="AVL01024" nciodm:ExtCodeID="C101919">
                    <nciodm:CDISCSynonym>AVL01-List A Recall 2 Word 7</nciodm:CDISCSynonym>
                    <nciodm:CDISCDefinition>Auditory Verbal Learning Test Version A - List A, Recall 2, Word 7.</nciodm:CDISCDefinition>
                    <nciodm:PreferredTerm>ADNI AVLT - List A Recall 2 Word 7</nciodm:PreferredTerm>
                </EnumeratedItem>
                <EnumeratedItem CodedValue="AVL01025" nciodm:ExtCodeID="C101920">
                    <nciodm:CDISCSynonym>AVL01-List A Recall 2 Word 8</nciodm:CDISCSynonym>
                    <nciodm:CDISCDefinition>Auditory Verbal Learning Test Version A - List A, Recall 2, Word 8.</nciodm:CDISCDefinition>
                    <nciodm:PreferredTerm>ADNI AVLT - List A Recall 2 Word 8</nciodm:PreferredTerm>
                </EnumeratedItem>
                <EnumeratedItem CodedValue="AVL01026" nciodm:ExtCodeID="C101921">
                    <nciodm:CDISCSynonym>AVL01-List A Recall 2 Word 9</nciodm:CDISCSynonym>
                    <nciodm:CDISCDefinition>Auditory Verbal Learning Test Version A - List A, Recall 2, Word 9.</nciodm:CDISCDefinition>
                    <nciodm:PreferredTerm>ADNI AVLT - List A Recall 2 Word 9</nciodm:PreferredTerm>
                </EnumeratedItem>
                <EnumeratedItem CodedValue="AVL01027" nciodm:ExtCodeID="C101922">
                    <nciodm:CDISCSynonym>AVL01-List A Recall 2 Word 10</nciodm:CDISCSynonym>
                    <nciodm:CDISCDefinition>Auditory Verbal Learning Test Version A - List A, Recall 2, Word 10.</nciodm:CDISCDefinition>
                    <nciodm:PreferredTerm>ADNI AVLT - List A Recall 2 Word 10</nciodm:PreferredTerm>
                </EnumeratedItem>
                <EnumeratedItem CodedValue="AVL01028" nciodm:ExtCodeID="C101923">
                    <nciodm:CDISCSynonym>AVL01-List A Recall 2 Word 11</nciodm:CDISCSynonym>
                    <nciodm:CDISCDefinition>Auditory Verbal Learning Test Version A - List A, Recall 2, Word 11.</nciodm:CDISCDefinition>
                    <nciodm:PreferredTerm>ADNI AVLT - List A Recall 2 Word 11</nciodm:PreferredTerm>
                </EnumeratedItem>
                <EnumeratedItem CodedValue="AVL01029" nciodm:ExtCodeID="C101924">
                    <nciodm:CDISCSynonym>AVL01-List A Recall 2 Word 12</nciodm:CDISCSynonym>
                    <nciodm:CDISCDefinition>Auditory Verbal Learning Test Version A - List A, Recall 2, Word 12.</nciodm:CDISCDefinition>
                    <nciodm:PreferredTerm>ADNI AVLT - List A Recall 2 Word 12</nciodm:PreferredTerm>
                </EnumeratedItem>
                <EnumeratedItem CodedValue="AVL01030" nciodm:ExtCodeID="C101925">
                    <nciodm:CDISCSynonym>AVL01-List A Recall 2 Word 13</nciodm:CDISCSynonym>
                    <nciodm:CDISCDefinition>Auditory Verbal Learning Test Version A - List A, Recall 2, Word 13.</nciodm:CDISCDefinition>
                    <nciodm:PreferredTerm>ADNI AVLT - List A Recall 2 Word 13</nciodm:PreferredTerm>
                </EnumeratedItem>
                <EnumeratedItem CodedValue="AVL01031" nciodm:ExtCodeID="C101926">
                    <nciodm:CDISCSynonym>AVL01-List A Recall 2 Word 14</nciodm:CDISCSynonym>
                    <nciodm:CDISCDefinition>Auditory Verbal Learning Test Version A - List A, Recall 2, Word 14.</nciodm:CDISCDefinition>
                    <nciodm:PreferredTerm>ADNI AVLT - List A Recall 2 Word 14</nciodm:PreferredTerm>
                </EnumeratedItem>
                <EnumeratedItem CodedValue="AVL01032" nciodm:ExtCodeID="C101927">
                    <nciodm:CDISCSynonym>AVL01-List A Recall 2 Word 15</nciodm:CDISCSynonym>
                    <nciodm:CDISCDefinition>Auditory Verbal Learning Test Version A - List A, Recall 2, Word 15.</nciodm:CDISCDefinition>
                    <nciodm:PreferredTerm>ADNI AVLT - List A Recall 2 Word 15</nciodm:PreferredTerm>
                </EnumeratedItem>
                <EnumeratedItem CodedValue="AVL01033" nciodm:ExtCodeID="C101928">
                    <nciodm:CDISCSynonym>AVL01-List A Recall 2 Total</nciodm:CDISCSynonym>
                    <nciodm:CDISCDefinition>Auditory Verbal Learning Test Version A - The number of words recalled from List A, second attempt.</nciodm:CDISCDefinition>
                    <nciodm:PreferredTerm>ADNI AVLT - List A Recall 2 Total</nciodm:PreferredTerm>
                </EnumeratedItem>
                <EnumeratedItem CodedValue="AVL01034" nciodm:ExtCodeID="C101929">
                    <nciodm:CDISCSynonym>AVL01-List A Intrusions 2</nciodm:CDISCSynonym>
                    <nciodm:CDISCDefinition>Auditory Verbal Learning Test Version A - The number of intrusions while recalling List A, second attempt.</nciodm:CDISCDefinition>
                    <nciodm:PreferredTerm>ADNI AVLT - List A Intrusions 2</nciodm:PreferredTerm>
                </EnumeratedItem>
                <EnumeratedItem CodedValue="AVL01035" nciodm:ExtCodeID="C101930">
                    <nciodm:CDISCSynonym>AVL01-List A Recall 3 Word 1</nciodm:CDISCSynonym>
                    <nciodm:CDISCDefinition>Auditory Verbal Learning Test Version A - List A, Recall 3, Word 1.</nciodm:CDISCDefinition>
                    <nciodm:PreferredTerm>ADNI AVLT - List A Recall 3 Word 1</nciodm:PreferredTerm>
                </EnumeratedItem>
                <EnumeratedItem CodedValue="AVL01036" nciodm:ExtCodeID="C101931">
                    <nciodm:CDISCSynonym>AVL01-List A Recall 3 Word 2</nciodm:CDISCSynonym>
                    <nciodm:CDISCDefinition>Auditory Verbal Learning Test Version A - List A, Recall 3, Word 2.</nciodm:CDISCDefinition>
                    <nciodm:PreferredTerm>ADNI AVLT - List A Recall 3 Word 2</nciodm:PreferredTerm>
                </EnumeratedItem>
                <EnumeratedItem CodedValue="AVL01037" nciodm:ExtCodeID="C101932">
                    <nciodm:CDISCSynonym>AVL01-List A Recall 3 Word 3</nciodm:CDISCSynonym>
                    <nciodm:CDISCDefinition>Auditory Verbal Learning Test Version A - List A, Recall 3, Word 3.</nciodm:CDISCDefinition>
                    <nciodm:PreferredTerm>ADNI AVLT - List A Recall 3 Word 3</nciodm:PreferredTerm>
                </EnumeratedItem>
                <EnumeratedItem CodedValue="AVL01038" nciodm:ExtCodeID="C101933">
                    <nciodm:CDISCSynonym>AVL01-List A Recall 3 Word 4</nciodm:CDISCSynonym>
                    <nciodm:CDISCDefinition>Auditory Verbal Learning Test Version A - List A, Recall 3, Word 4.</nciodm:CDISCDefinition>
                    <nciodm:PreferredTerm>ADNI AVLT - List A Recall 3 Word 4</nciodm:PreferredTerm>
                </EnumeratedItem>
                <EnumeratedItem CodedValue="AVL01039" nciodm:ExtCodeID="C101934">
                    <nciodm:CDISCSynonym>AVL01-List A Recall 3 Word 5</nciodm:CDISCSynonym>
                    <nciodm:CDISCDefinition>Auditory Verbal Learning Test Version A - List A, Recall 3, Word 5.</nciodm:CDISCDefinition>
                    <nciodm:PreferredTerm>ADNI AVLT - List A Recall 3 Word 5</nciodm:PreferredTerm>
                </EnumeratedItem>
                <EnumeratedItem CodedValue="AVL01040" nciodm:ExtCodeID="C101935">
                    <nciodm:CDISCSynonym>AVL01-List A Recall 3 Word 6</nciodm:CDISCSynonym>
                    <nciodm:CDISCDefinition>Auditory Verbal Learning Test Version A - List A, Recall 3, Word 6.</nciodm:CDISCDefinition>
                    <nciodm:PreferredTerm>ADNI AVLT - List A Recall 3 Word 6</nciodm:PreferredTerm>
                </EnumeratedItem>
                <EnumeratedItem CodedValue="AVL01041" nciodm:ExtCodeID="C101936">
                    <nciodm:CDISCSynonym>AVL01-List A Recall 3 Word 7</nciodm:CDISCSynonym>
                    <nciodm:CDISCDefinition>Auditory Verbal Learning Test Version A - List A, Recall 3, Word 7.</nciodm:CDISCDefinition>
                    <nciodm:PreferredTerm>ADNI AVLT - List A Recall 3 Word 7</nciodm:PreferredTerm>
                </EnumeratedItem>
                <EnumeratedItem CodedValue="AVL01042" nciodm:ExtCodeID="C101937">
                    <nciodm:CDISCSynonym>AVL01-List A Recall 3 Word 8</nciodm:CDISCSynonym>
                    <nciodm:CDISCDefinition>Auditory Verbal Learning Test Version A - List A, Recall 3, Word 8.</nciodm:CDISCDefinition>
                    <nciodm:PreferredTerm>ADNI AVLT - List A Recall 3 Word 8</nciodm:PreferredTerm>
                </EnumeratedItem>
                <EnumeratedItem CodedValue="AVL01043" nciodm:ExtCodeID="C101938">
                    <nciodm:CDISCSynonym>AVL01-List A Recall 3 Word 9</nciodm:CDISCSynonym>
                    <nciodm:CDISCDefinition>Auditory Verbal Learning Test Version A - List A, Recall 3, Word 9.</nciodm:CDISCDefinition>
                    <nciodm:PreferredTerm>ADNI AVLT - List A Recall 3 Word 9</nciodm:PreferredTerm>
                </EnumeratedItem>
                <EnumeratedItem CodedValue="AVL01044" nciodm:ExtCodeID="C101939">
                    <nciodm:CDISCSynonym>AVL01-List A Recall 3 Word 10</nciodm:CDISCSynonym>
                    <nciodm:CDISCDefinition>Auditory Verbal Learning Test Version A - List A, Recall 3, Word 10.</nciodm:CDISCDefinition>
                    <nciodm:PreferredTerm>ADNI AVLT - List A Recall 3 Word 10</nciodm:PreferredTerm>
                </EnumeratedItem>
                <EnumeratedItem CodedValue="AVL01045" nciodm:ExtCodeID="C101940">
                    <nciodm:CDISCSynonym>AVL01-List A Recall 3 Word 11</nciodm:CDISCSynonym>
                    <nciodm:CDISCDefinition>Auditory Verbal Learning Test Version A - List A, Recall 3, Word 11.</nciodm:CDISCDefinition>
                    <nciodm:PreferredTerm>ADNI AVLT - List A Recall 3 Word 11</nciodm:PreferredTerm>
                </EnumeratedItem>
                <EnumeratedItem CodedValue="AVL01046" nciodm:ExtCodeID="C101941">
                    <nciodm:CDISCSynonym>AVL01-List A Recall 3 Word 12</nciodm:CDISCSynonym>
                    <nciodm:CDISCDefinition>Auditory Verbal Learning Test Version A - List A, Recall 3, Word 12.</nciodm:CDISCDefinition>
                    <nciodm:PreferredTerm>ADNI AVLT - List A Recall 3 Word 12</nciodm:PreferredTerm>
                </EnumeratedItem>
                <EnumeratedItem CodedValue="AVL01047" nciodm:ExtCodeID="C101942">
                    <nciodm:CDISCSynonym>AVL01-List A Recall 3 Word 13</nciodm:CDISCSynonym>
                    <nciodm:CDISCDefinition>Auditory Verbal Learning Test Version A - List A, Recall 3, Word 13.</nciodm:CDISCDefinition>
                    <nciodm:PreferredTerm>ADNI AVLT - List A Recall 3 Word 13</nciodm:PreferredTerm>
                </EnumeratedItem>
                <EnumeratedItem CodedValue="AVL01048" nciodm:ExtCodeID="C101943">
                    <nciodm:CDISCSynonym>AVL01-List A Recall 3 Word 14</nciodm:CDISCSynonym>
                    <nciodm:CDISCDefinition>Auditory Verbal Learning Test Version A - List A, Recall 3, Word 14.</nciodm:CDISCDefinition>
                    <nciodm:PreferredTerm>ADNI AVLT - List A Recall 3 Word 14</nciodm:PreferredTerm>
                </EnumeratedItem>
                <EnumeratedItem CodedValue="AVL01049" nciodm:ExtCodeID="C101944">
                    <nciodm:CDISCSynonym>AVL01-List A Recall 3 Word 15</nciodm:CDISCSynonym>
                    <nciodm:CDISCDefinition>Auditory Verbal Learning Test Version A - List A, Recall 3, Word 15.</nciodm:CDISCDefinition>
                    <nciodm:PreferredTerm>ADNI AVLT - List A Recall 3 Word 15</nciodm:PreferredTerm>
                </EnumeratedItem>
                <EnumeratedItem CodedValue="AVL01050" nciodm:ExtCodeID="C101945">
                    <nciodm:CDISCSynonym>AVL01-List A Recall 3 Total</nciodm:CDISCSynonym>
                    <nciodm:CDISCDefinition>Auditory Verbal Learning Test Version A - The number of words recalled from List A, third attempt.</nciodm:CDISCDefinition>
                    <nciodm:PreferredTerm>ADNI AVLT - List A Recall 3 Total</nciodm:PreferredTerm>
                </EnumeratedItem>
                <EnumeratedItem CodedValue="AVL01051" nciodm:ExtCodeID="C101946">
                    <nciodm:CDISCSynonym>AVL01-List A Intrusions 3</nciodm:CDISCSynonym>
                    <nciodm:CDISCDefinition>Auditory Verbal Learning Test Version A - The number of intrusions while recalling List A, third attempt.</nciodm:CDISCDefinition>
                    <nciodm:PreferredTerm>ADNI AVLT - List A Intrusions 3</nciodm:PreferredTerm>
                </EnumeratedItem>
                <EnumeratedItem CodedValue="AVL01052" nciodm:ExtCodeID="C101947">
                    <nciodm:CDISCSynonym>AVL01-List A Recall 4 Word 1</nciodm:CDISCSynonym>
                    <nciodm:CDISCDefinition>Auditory Verbal Learning Test Version A - List A, Recall 4, Word 1.</nciodm:CDISCDefinition>
                    <nciodm:PreferredTerm>ADNI AVLT - List A Recall 4 Word 1</nciodm:PreferredTerm>
                </EnumeratedItem>
                <EnumeratedItem CodedValue="AVL01053" nciodm:ExtCodeID="C101948">
                    <nciodm:CDISCSynonym>AVL01-List A Recall 4 Word 2</nciodm:CDISCSynonym>
                    <nciodm:CDISCDefinition>Auditory Verbal Learning Test Version A - List A, Recall 4, Word 2.</nciodm:CDISCDefinition>
                    <nciodm:PreferredTerm>ADNI AVLT - List A Recall 4 Word 2</nciodm:PreferredTerm>
                </EnumeratedItem>
                <EnumeratedItem CodedValue="AVL01054" nciodm:ExtCodeID="C101949">
                    <nciodm:CDISCSynonym>AVL01-List A Recall 4 Word 3</nciodm:CDISCSynonym>
                    <nciodm:CDISCDefinition>Auditory Verbal Learning Test Version A - List A, Recall 4, Word 3.</nciodm:CDISCDefinition>
                    <nciodm:PreferredTerm>ADNI AVLT - List A Recall 4 Word 3</nciodm:PreferredTerm>
                </EnumeratedItem>
                <EnumeratedItem CodedValue="AVL01055" nciodm:ExtCodeID="C101950">
                    <nciodm:CDISCSynonym>AVL01-List A Recall 4 Word 4</nciodm:CDISCSynonym>
                    <nciodm:CDISCDefinition>Auditory Verbal Learning Test Version A - List A, Recall 4, Word 4.</nciodm:CDISCDefinition>
                    <nciodm:PreferredTerm>ADNI AVLT - List A Recall 4 Word 4</nciodm:PreferredTerm>
                </EnumeratedItem>
                <EnumeratedItem CodedValue="AVL01056" nciodm:ExtCodeID="C101951">
                    <nciodm:CDISCSynonym>AVL01-List A Recall 4 Word 5</nciodm:CDISCSynonym>
                    <nciodm:CDISCDefinition>Auditory Verbal Learning Test Version A - List A, Recall 4, Word 5.</nciodm:CDISCDefinition>
                    <nciodm:PreferredTerm>ADNI AVLT - List A Recall 4 Word 5</nciodm:PreferredTerm>
                </EnumeratedItem>
                <EnumeratedItem CodedValue="AVL01057" nciodm:ExtCodeID="C101952">
                    <nciodm:CDISCSynonym>AVL01-List A Recall 4 Word 6</nciodm:CDISCSynonym>
                    <nciodm:CDISCDefinition>Auditory Verbal Learning Test Version A - List A, Recall 4, Word 6.</nciodm:CDISCDefinition>
                    <nciodm:PreferredTerm>ADNI AVLT - List A Recall 4 Word 6</nciodm:PreferredTerm>
                </EnumeratedItem>
                <EnumeratedItem CodedValue="AVL01058" nciodm:ExtCodeID="C101953">
                    <nciodm:CDISCSynonym>AVL01-List A Recall 4 Word 7</nciodm:CDISCSynonym>
                    <nciodm:CDISCDefinition>Auditory Verbal Learning Test Version A - List A, Recall 4, Word 7.</nciodm:CDISCDefinition>
                    <nciodm:PreferredTerm>ADNI AVLT - List A Recall 4 Word 7</nciodm:PreferredTerm>
                </EnumeratedItem>
                <EnumeratedItem CodedValue="AVL01059" nciodm:ExtCodeID="C101954">
                    <nciodm:CDISCSynonym>AVL01-List A Recall 4 Word 8</nciodm:CDISCSynonym>
                    <nciodm:CDISCDefinition>Auditory Verbal Learning Test Version A - List A, Recall 4, Word 8.</nciodm:CDISCDefinition>
                    <nciodm:PreferredTerm>ADNI AVLT - List A Recall 4 Word 8</nciodm:PreferredTerm>
                </EnumeratedItem>
                <EnumeratedItem CodedValue="AVL01060" nciodm:ExtCodeID="C101955">
                    <nciodm:CDISCSynonym>AVL01-List A Recall 4 Word 9</nciodm:CDISCSynonym>
                    <nciodm:CDISCDefinition>Auditory Verbal Learning Test Version A - List A, Recall 4, Word 9.</nciodm:CDISCDefinition>
                    <nciodm:PreferredTerm>ADNI AVLT - List A Recall 4 Word 9</nciodm:PreferredTerm>
                </EnumeratedItem>
                <EnumeratedItem CodedValue="AVL01061" nciodm:ExtCodeID="C101956">
                    <nciodm:CDISCSynonym>AVL01-List A Recall 4 Word 10</nciodm:CDISCSynonym>
                    <nciodm:CDISCDefinition>Auditory Verbal Learning Test Version A - List A, Recall 4, Word 10.</nciodm:CDISCDefinition>
                    <nciodm:PreferredTerm>ADNI AVLT - List A Recall 4 Word 10</nciodm:PreferredTerm>
                </EnumeratedItem>
                <EnumeratedItem CodedValue="AVL01062" nciodm:ExtCodeID="C101957">
                    <nciodm:CDISCSynonym>AVL01-List A Recall 4 Word 11</nciodm:CDISCSynonym>
                    <nciodm:CDISCDefinition>Auditory Verbal Learning Test Version A - List A, Recall 4, Word 11.</nciodm:CDISCDefinition>
                    <nciodm:PreferredTerm>ADNI AVLT - List A Recall 4 Word 11</nciodm:PreferredTerm>
                </EnumeratedItem>
                <EnumeratedItem CodedValue="AVL01063" nciodm:ExtCodeID="C101958">
                    <nciodm:CDISCSynonym>AVL01-List A Recall 4 Word 12</nciodm:CDISCSynonym>
                    <nciodm:CDISCDefinition>Auditory Verbal Learning Test Version A - List A, Recall 4, Word 12.</nciodm:CDISCDefinition>
                    <nciodm:PreferredTerm>ADNI AVLT - List A Recall 4 Word 12</nciodm:PreferredTerm>
                </EnumeratedItem>
                <EnumeratedItem CodedValue="AVL01064" nciodm:ExtCodeID="C101959">
                    <nciodm:CDISCSynonym>AVL01-List A Recall 4 Word 13</nciodm:CDISCSynonym>
                    <nciodm:CDISCDefinition>Auditory Verbal Learning Test Version A - List A, Recall 4, Word 13.</nciodm:CDISCDefinition>
                    <nciodm:PreferredTerm>ADNI AVLT - List A Recall 4 Word 13</nciodm:PreferredTerm>
                </EnumeratedItem>
                <EnumeratedItem CodedValue="AVL01065" nciodm:ExtCodeID="C101960">
                    <nciodm:CDISCSynonym>AVL01-List A Recall 4 Word 14</nciodm:CDISCSynonym>
                    <nciodm:CDISCDefinition>Auditory Verbal Learning Test Version A - List A, Recall 4, Word 14.</nciodm:CDISCDefinition>
                    <nciodm:PreferredTerm>ADNI AVLT - List A Recall 4 Word 14</nciodm:PreferredTerm>
                </EnumeratedItem>
                <EnumeratedItem CodedValue="AVL01066" nciodm:ExtCodeID="C101961">
                    <nciodm:CDISCSynonym>AVL01-List A Recall 4 Word 15</nciodm:CDISCSynonym>
                    <nciodm:CDISCDefinition>Auditory Verbal Learning Test Version A - List A, Recall 4, Word 15.</nciodm:CDISCDefinition>
                    <nciodm:PreferredTerm>ADNI AVLT - List A Recall 4 Word 15</nciodm:PreferredTerm>
                </EnumeratedItem>
                <EnumeratedItem CodedValue="AVL01067" nciodm:ExtCodeID="C101962">
                    <nciodm:CDISCSynonym>AVL01-List A Recall 4 Total</nciodm:CDISCSynonym>
                    <nciodm:CDISCDefinition>Auditory Verbal Learning Test Version A - The number of words recalled from List A, fourth attempt.</nciodm:CDISCDefinition>
                    <nciodm:PreferredTerm>ADNI AVLT - List A Recall 4 Total</nciodm:PreferredTerm>
                </EnumeratedItem>
                <EnumeratedItem CodedValue="AVL01068" nciodm:ExtCodeID="C101963">
                    <nciodm:CDISCSynonym>AVL01-List A Intrusions 4</nciodm:CDISCSynonym>
                    <nciodm:CDISCDefinition>Auditory Verbal Learning Test Version A - The number of intrusions while recalling List A, fourth attempt.</nciodm:CDISCDefinition>
                    <nciodm:PreferredTerm>ADNI AVLT - List A Intrusions 4</nciodm:PreferredTerm>
                </EnumeratedItem>
                <EnumeratedItem CodedValue="AVL01069" nciodm:ExtCodeID="C101964">
                    <nciodm:CDISCSynonym>AVL01-List A Recall 5 Word 1</nciodm:CDISCSynonym>
                    <nciodm:CDISCDefinition>Auditory Verbal Learning Test Version A - List A, Recall 5, Word 1.</nciodm:CDISCDefinition>
                    <nciodm:PreferredTerm>ADNI AVLT - List A Recall 5 Word 1</nciodm:PreferredTerm>
                </EnumeratedItem>
                <EnumeratedItem CodedValue="AVL01070" nciodm:ExtCodeID="C101965">
                    <nciodm:CDISCSynonym>AVL01-List A Recall 5 Word 2</nciodm:CDISCSynonym>
                    <nciodm:CDISCDefinition>Auditory Verbal Learning Test Version A - List A, Recall 5, Word 2.</nciodm:CDISCDefinition>
                    <nciodm:PreferredTerm>ADNI AVLT - List A Recall 5 Word 2</nciodm:PreferredTerm>
                </EnumeratedItem>
                <EnumeratedItem CodedValue="AVL01071" nciodm:ExtCodeID="C101966">
                    <nciodm:CDISCSynonym>AVL01-List A Recall 5 Word 3</nciodm:CDISCSynonym>
                    <nciodm:CDISCDefinition>Auditory Verbal Learning Test Version A - List A, Recall 5, Word 3.</nciodm:CDISCDefinition>
                    <nciodm:PreferredTerm>ADNI AVLT - List A Recall 5 Word 3</nciodm:PreferredTerm>
                </EnumeratedItem>
                <EnumeratedItem CodedValue="AVL01072" nciodm:ExtCodeID="C101967">
                    <nciodm:CDISCSynonym>AVL01-List A Recall 5 Word 4</nciodm:CDISCSynonym>
                    <nciodm:CDISCDefinition>Auditory Verbal Learning Test Version A - List A, Recall 5, Word 4.</nciodm:CDISCDefinition>
                    <nciodm:PreferredTerm>ADNI AVLT - List A Recall 5 Word 4</nciodm:PreferredTerm>
                </EnumeratedItem>
                <EnumeratedItem CodedValue="AVL01073" nciodm:ExtCodeID="C101968">
                    <nciodm:CDISCSynonym>AVL01-List A Recall 5 Word 5</nciodm:CDISCSynonym>
                    <nciodm:CDISCDefinition>Auditory Verbal Learning Test Version A - List A, Recall 5, Word 5.</nciodm:CDISCDefinition>
                    <nciodm:PreferredTerm>ADNI AVLT - List A Recall 5 Word 5</nciodm:PreferredTerm>
                </EnumeratedItem>
                <EnumeratedItem CodedValue="AVL01074" nciodm:ExtCodeID="C101969">
                    <nciodm:CDISCSynonym>AVL01-List A Recall 5 Word 6</nciodm:CDISCSynonym>
                    <nciodm:CDISCDefinition>Auditory Verbal Learning Test Version A - List A, Recall 5, Word 6.</nciodm:CDISCDefinition>
                    <nciodm:PreferredTerm>ADNI AVLT - List A Recall 5 Word 6</nciodm:PreferredTerm>
                </EnumeratedItem>
                <EnumeratedItem CodedValue="AVL01075" nciodm:ExtCodeID="C101970">
                    <nciodm:CDISCSynonym>AVL01-List A Recall 5 Word 7</nciodm:CDISCSynonym>
                    <nciodm:CDISCDefinition>Auditory Verbal Learning Test Version A - List A, Recall 5, Word 7.</nciodm:CDISCDefinition>
                    <nciodm:PreferredTerm>ADNI AVLT - List A Recall 5 Word 7</nciodm:PreferredTerm>
                </EnumeratedItem>
                <EnumeratedItem CodedValue="AVL01076" nciodm:ExtCodeID="C101971">
                    <nciodm:CDISCSynonym>AVL01-List A Recall 5 Word 8</nciodm:CDISCSynonym>
                    <nciodm:CDISCDefinition>Auditory Verbal Learning Test Version A - List A, Recall 5, Word 8.</nciodm:CDISCDefinition>
                    <nciodm:PreferredTerm>ADNI AVLT - List A Recall 5 Word 8</nciodm:PreferredTerm>
                </EnumeratedItem>
                <EnumeratedItem CodedValue="AVL01077" nciodm:ExtCodeID="C101972">
                    <nciodm:CDISCSynonym>AVL01-List A Recall 5 Word 9</nciodm:CDISCSynonym>
                    <nciodm:CDISCDefinition>Auditory Verbal Learning Test Version A - List A, Recall 5, Word 9.</nciodm:CDISCDefinition>
                    <nciodm:PreferredTerm>ADNI AVLT - List A Recall 5 Word 9</nciodm:PreferredTerm>
                </EnumeratedItem>
                <EnumeratedItem CodedValue="AVL01078" nciodm:ExtCodeID="C101973">
                    <nciodm:CDISCSynonym>AVL01-List A Recall 5 Word 10</nciodm:CDISCSynonym>
                    <nciodm:CDISCDefinition>Auditory Verbal Learning Test Version A - List A, Recall 5, Word 10.</nciodm:CDISCDefinition>
                    <nciodm:PreferredTerm>ADNI AVLT - List A Recall 5 Word 10</nciodm:PreferredTerm>
                </EnumeratedItem>
                <EnumeratedItem CodedValue="AVL01079" nciodm:ExtCodeID="C101974">
                    <nciodm:CDISCSynonym>AVL01-List A Recall 5 Word 11</nciodm:CDISCSynonym>
                    <nciodm:CDISCDefinition>Auditory Verbal Learning Test Version A - List A, Recall 5, Word 11.</nciodm:CDISCDefinition>
                    <nciodm:PreferredTerm>ADNI AVLT - List A Recall 5 Word 11</nciodm:PreferredTerm>
                </EnumeratedItem>
                <EnumeratedItem CodedValue="AVL01080" nciodm:ExtCodeID="C101975">
                    <nciodm:CDISCSynonym>AVL01-List A Recall 5 Word 12</nciodm:CDISCSynonym>
                    <nciodm:CDISCDefinition>Auditory Verbal Learning Test Version A - List A, Recall 5, Word 12.</nciodm:CDISCDefinition>
                    <nciodm:PreferredTerm>ADNI AVLT - List A Recall 5 Word 12</nciodm:PreferredTerm>
                </EnumeratedItem>
                <EnumeratedItem CodedValue="AVL01081" nciodm:ExtCodeID="C101976">
                    <nciodm:CDISCSynonym>AVL01-List A Recall 5 Word 13</nciodm:CDISCSynonym>
                    <nciodm:CDISCDefinition>Auditory Verbal Learning Test Version A - List A, Recall 5, Word 13.</nciodm:CDISCDefinition>
                    <nciodm:PreferredTerm>ADNI AVLT - List A Recall 5 Word 13</nciodm:PreferredTerm>
                </EnumeratedItem>
                <EnumeratedItem CodedValue="AVL01082" nciodm:ExtCodeID="C101977">
                    <nciodm:CDISCSynonym>AVL01-List A Recall 5 Word 14</nciodm:CDISCSynonym>
                    <nciodm:CDISCDefinition>Auditory Verbal Learning Test Version A - List A, Recall 5, Word 14.</nciodm:CDISCDefinition>
                    <nciodm:PreferredTerm>ADNI AVLT - List A Recall 5 Word 14</nciodm:PreferredTerm>
                </EnumeratedItem>
                <EnumeratedItem CodedValue="AVL01083" nciodm:ExtCodeID="C101978">
                    <nciodm:CDISCSynonym>AVL01-List A Recall 5 Word 15</nciodm:CDISCSynonym>
                    <nciodm:CDISCDefinition>Auditory Verbal Learning Test Version A - List A, Recall 5, Word 15.</nciodm:CDISCDefinition>
                    <nciodm:PreferredTerm>ADNI AVLT - List A Recall 5 Word 15</nciodm:PreferredTerm>
                </EnumeratedItem>
                <EnumeratedItem CodedValue="AVL01084" nciodm:ExtCodeID="C101979">
                    <nciodm:CDISCSynonym>AVL01-List A Recall 5 Total</nciodm:CDISCSynonym>
                    <nciodm:CDISCDefinition>Auditory Verbal Learning Test Version A - The number of words recalled from List A, fifth attempt.</nciodm:CDISCDefinition>
                    <nciodm:PreferredTerm>ADNI AVLT - List A Recall 5 Total</nciodm:PreferredTerm>
                </EnumeratedItem>
                <EnumeratedItem CodedValue="AVL01085" nciodm:ExtCodeID="C101980">
                    <nciodm:CDISCSynonym>AVL01-List A Intrusions 5</nciodm:CDISCSynonym>
                    <nciodm:CDISCDefinition>Auditory Verbal Learning Test Version A - The number of intrusions while recalling List A, fifth attempt.</nciodm:CDISCDefinition>
                    <nciodm:PreferredTerm>ADNI AVLT - List A Intrusions 5</nciodm:PreferredTerm>
                </EnumeratedItem>
                <EnumeratedItem CodedValue="AVL01086" nciodm:ExtCodeID="C101981">
                    <nciodm:CDISCSynonym>AVL01-List A Recall 6 (After B) Word 1</nciodm:CDISCSynonym>
                    <nciodm:CDISCDefinition>Auditory Verbal Learning Test Version A - List A, Recall 6 (after B Recall), Word 1.</nciodm:CDISCDefinition>
                    <nciodm:PreferredTerm>ADNI AVLT - List A Recall 6 (After B) Word 1</nciodm:PreferredTerm>
                </EnumeratedItem>
                <EnumeratedItem CodedValue="AVL01087" nciodm:ExtCodeID="C101982">
                    <nciodm:CDISCSynonym>AVL01-List A Recall 6 (After B) Word 2</nciodm:CDISCSynonym>
                    <nciodm:CDISCDefinition>Auditory Verbal Learning Test Version A - List A, Recall 6 (after B Recall), Word 2.</nciodm:CDISCDefinition>
                    <nciodm:PreferredTerm>ADNI AVLT - List A Recall 6 (After B) Word 2</nciodm:PreferredTerm>
                </EnumeratedItem>
                <EnumeratedItem CodedValue="AVL01088" nciodm:ExtCodeID="C101983">
                    <nciodm:CDISCSynonym>AVL01-List A Recall 6 (After B) Word 3</nciodm:CDISCSynonym>
                    <nciodm:CDISCDefinition>Auditory Verbal Learning Test Version A - List A, Recall 6 (after B Recall), Word 3.</nciodm:CDISCDefinition>
                    <nciodm:PreferredTerm>ADNI AVLT - List A Recall 6 (After B) Word 3</nciodm:PreferredTerm>
                </EnumeratedItem>
                <EnumeratedItem CodedValue="AVL01089" nciodm:ExtCodeID="C101984">
                    <nciodm:CDISCSynonym>AVL01-List A Recall 6 (After B) Word 4</nciodm:CDISCSynonym>
                    <nciodm:CDISCDefinition>Auditory Verbal Learning Test Version A - List A, Recall 6 (after B Recall), Word 4.</nciodm:CDISCDefinition>
                    <nciodm:PreferredTerm>ADNI AVLT - List A Recall 6 (After B) Word 4</nciodm:PreferredTerm>
                </EnumeratedItem>
                <EnumeratedItem CodedValue="AVL01090" nciodm:ExtCodeID="C101985">
                    <nciodm:CDISCSynonym>AVL01-List A Recall 6 (After B) Word 5</nciodm:CDISCSynonym>
                    <nciodm:CDISCDefinition>Auditory Verbal Learning Test Version A - List A, Recall 6 (after B Recall), Word 5.</nciodm:CDISCDefinition>
                    <nciodm:PreferredTerm>ADNI AVLT - List A Recall 6 (After B) Word 5</nciodm:PreferredTerm>
                </EnumeratedItem>
                <EnumeratedItem CodedValue="AVL01091" nciodm:ExtCodeID="C101986">
                    <nciodm:CDISCSynonym>AVL01-List A Recall 6 (After B) Word 6</nciodm:CDISCSynonym>
                    <nciodm:CDISCDefinition>Auditory Verbal Learning Test Version A - List A, Recall 6 (after B Recall), Word 6.</nciodm:CDISCDefinition>
                    <nciodm:PreferredTerm>ADNI AVLT - List A Recall 6 (After B) Word 6</nciodm:PreferredTerm>
                </EnumeratedItem>
                <EnumeratedItem CodedValue="AVL01092" nciodm:ExtCodeID="C101987">
                    <nciodm:CDISCSynonym>AVL01-List A Recall 6 (After B) Word 7</nciodm:CDISCSynonym>
                    <nciodm:CDISCDefinition>Auditory Verbal Learning Test Version A - List A, Recall 6 (after B Recall), Word 7.</nciodm:CDISCDefinition>
                    <nciodm:PreferredTerm>ADNI AVLT - List A Recall 6 (After B) Word 7</nciodm:PreferredTerm>
                </EnumeratedItem>
                <EnumeratedItem CodedValue="AVL01093" nciodm:ExtCodeID="C101988">
                    <nciodm:CDISCSynonym>AVL01-List A Recall 6 (After B) Word 8</nciodm:CDISCSynonym>
                    <nciodm:CDISCDefinition>Auditory Verbal Learning Test Version A - List A, Recall 6 (after B Recall), Word 8.</nciodm:CDISCDefinition>
                    <nciodm:PreferredTerm>ADNI AVLT - List A Recall 6 (After B) Word 8</nciodm:PreferredTerm>
                </EnumeratedItem>
                <EnumeratedItem CodedValue="AVL01094" nciodm:ExtCodeID="C101989">
                    <nciodm:CDISCSynonym>AVL01-List A Recall 6 (After B) Word 9</nciodm:CDISCSynonym>
                    <nciodm:CDISCDefinition>Auditory Verbal Learning Test Version A - List A, Recall 6 (after B Recall), Word 9.</nciodm:CDISCDefinition>
                    <nciodm:PreferredTerm>ADNI AVLT - List A Recall 6 (After B) Word 9</nciodm:PreferredTerm>
                </EnumeratedItem>
                <EnumeratedItem CodedValue="AVL01095" nciodm:ExtCodeID="C101990">
                    <nciodm:CDISCSynonym>AVL01-List A Recall 6 (After B) Word 10</nciodm:CDISCSynonym>
                    <nciodm:CDISCDefinition>Auditory Verbal Learning Test Version A - List A, Recall 6 (after B Recall), Word 10.</nciodm:CDISCDefinition>
                    <nciodm:PreferredTerm>ADNI AVLT - List A Recall 6 (After B) Word 10</nciodm:PreferredTerm>
                </EnumeratedItem>
                <EnumeratedItem CodedValue="AVL01096" nciodm:ExtCodeID="C101991">
                    <nciodm:CDISCSynonym>AVL01-List A Recall 6 (After B) Word 11</nciodm:CDISCSynonym>
                    <nciodm:CDISCDefinition>Auditory Verbal Learning Test Version A - List A, Recall 6 (after B Recall), Word 11.</nciodm:CDISCDefinition>
                    <nciodm:PreferredTerm>ADNI AVLT - List A Recall 6 (After B) Word 11</nciodm:PreferredTerm>
                </EnumeratedItem>
                <EnumeratedItem CodedValue="AVL01097" nciodm:ExtCodeID="C101992">
                    <nciodm:CDISCSynonym>AVL01-List A Recall 6 (After B) Word 12</nciodm:CDISCSynonym>
                    <nciodm:CDISCDefinition>Auditory Verbal Learning Test Version A - List A, Recall 6 (after B Recall), Word 12.</nciodm:CDISCDefinition>
                    <nciodm:PreferredTerm>ADNI AVLT - List A Recall 6 (After B) Word 12</nciodm:PreferredTerm>
                </EnumeratedItem>
                <EnumeratedItem CodedValue="AVL01098" nciodm:ExtCodeID="C101993">
                    <nciodm:CDISCSynonym>AVL01-List A Recall 6 (After B) Word 13</nciodm:CDISCSynonym>
                    <nciodm:CDISCDefinition>Auditory Verbal Learning Test Version A - List A, Recall 6 (after B Recall), Word 13.</nciodm:CDISCDefinition>
                    <nciodm:PreferredTerm>ADNI AVLT - List A Recall 6 (After B) Word 13</nciodm:PreferredTerm>
                </EnumeratedItem>
                <EnumeratedItem CodedValue="AVL01099" nciodm:ExtCodeID="C101994">
                    <nciodm:CDISCSynonym>AVL01-List A Recall 6 (After B) Word 14</nciodm:CDISCSynonym>
                    <nciodm:CDISCDefinition>Auditory Verbal Learning Test Version A - List A, Recall 6 (after B Recall), Word 14.</nciodm:CDISCDefinition>
                    <nciodm:PreferredTerm>ADNI AVLT - List A Recall 6 (After B) Word 14</nciodm:PreferredTerm>
                </EnumeratedItem>
                <EnumeratedItem CodedValue="AVL01100" nciodm:ExtCodeID="C101995">
                    <nciodm:CDISCSynonym>AVL01-List A Recall 6 (After B) Word 15</nciodm:CDISCSynonym>
                    <nciodm:CDISCDefinition>Auditory Verbal Learning Test Version A - List A, Recall 6 (after B Recall), Word 15.</nciodm:CDISCDefinition>
                    <nciodm:PreferredTerm>ADNI AVLT - List A Recall 6 (After B) Word 15</nciodm:PreferredTerm>
                </EnumeratedItem>
                <EnumeratedItem CodedValue="AVL01101" nciodm:ExtCodeID="C101996">
                    <nciodm:CDISCSynonym>AVL01-List A Recall 6 (After B) Total</nciodm:CDISCSynonym>
                    <nciodm:CDISCDefinition>Auditory Verbal Learning Test Version A - The number of words recalled from List A, sixth attempt (after List B recall).</nciodm:CDISCDefinition>
                    <nciodm:PreferredTerm>ADNI AVLT - List A Recall 6 (After B) Total</nciodm:PreferredTerm>
                </EnumeratedItem>
                <EnumeratedItem CodedValue="AVL01102" nciodm:ExtCodeID="C101997">
                    <nciodm:CDISCSynonym>AVL01-List A Intrusions 6</nciodm:CDISCSynonym>
                    <nciodm:CDISCDefinition>Auditory Verbal Learning Test Version A - The number of intrusions while recalling List A, sixth attempt (after List B recall).</nciodm:CDISCDefinition>
                    <nciodm:PreferredTerm>ADNI AVLT - List A Intrusions 6</nciodm:PreferredTerm>
                </EnumeratedItem>
                <EnumeratedItem CodedValue="AVL01103" nciodm:ExtCodeID="C101998">
                    <nciodm:CDISCSynonym>AVL01-List B Recall Word 1</nciodm:CDISCSynonym>
                    <nciodm:CDISCDefinition>Auditory Verbal Learning Test Version A - List B, Word 1.</nciodm:CDISCDefinition>
                    <nciodm:PreferredTerm>ADNI AVLT - List B Recall Word 1</nciodm:PreferredTerm>
                </EnumeratedItem>
                <EnumeratedItem CodedValue="AVL01104" nciodm:ExtCodeID="C101999">
                    <nciodm:CDISCSynonym>AVL01-List B Recall Word 2</nciodm:CDISCSynonym>
                    <nciodm:CDISCDefinition>Auditory Verbal Learning Test Version A - List B, Word 2.</nciodm:CDISCDefinition>
                    <nciodm:PreferredTerm>ADNI AVLT - List B Recall Word 2</nciodm:PreferredTerm>
                </EnumeratedItem>
                <EnumeratedItem CodedValue="AVL01105" nciodm:ExtCodeID="C102000">
                    <nciodm:CDISCSynonym>AVL01-List B Recall Word 3</nciodm:CDISCSynonym>
                    <nciodm:CDISCDefinition>Auditory Verbal Learning Test Version A - List B, Word 3.</nciodm:CDISCDefinition>
                    <nciodm:PreferredTerm>ADNI AVLT - List B Recall Word 3</nciodm:PreferredTerm>
                </EnumeratedItem>
                <EnumeratedItem CodedValue="AVL01106" nciodm:ExtCodeID="C102001">
                    <nciodm:CDISCSynonym>AVL01-List B Recall Word 4</nciodm:CDISCSynonym>
                    <nciodm:CDISCDefinition>Auditory Verbal Learning Test Version A - List B, Word 4.</nciodm:CDISCDefinition>
                    <nciodm:PreferredTerm>ADNI AVLT - List B Recall Word 4</nciodm:PreferredTerm>
                </EnumeratedItem>
                <EnumeratedItem CodedValue="AVL01107" nciodm:ExtCodeID="C102002">
                    <nciodm:CDISCSynonym>AVL01-List B Recall Word 5</nciodm:CDISCSynonym>
                    <nciodm:CDISCDefinition>Auditory Verbal Learning Test Version A - List B, Word 5.</nciodm:CDISCDefinition>
                    <nciodm:PreferredTerm>ADNI AVLT - List B Recall Word 5</nciodm:PreferredTerm>
                </EnumeratedItem>
                <EnumeratedItem CodedValue="AVL01108" nciodm:ExtCodeID="C102003">
                    <nciodm:CDISCSynonym>AVL01-List B Recall Word 6</nciodm:CDISCSynonym>
                    <nciodm:CDISCDefinition>Auditory Verbal Learning Test Version A - List B, Word 6.</nciodm:CDISCDefinition>
                    <nciodm:PreferredTerm>ADNI AVLT - List B Recall Word 6</nciodm:PreferredTerm>
                </EnumeratedItem>
                <EnumeratedItem CodedValue="AVL01109" nciodm:ExtCodeID="C102004">
                    <nciodm:CDISCSynonym>AVL01-List B Recall Word 7</nciodm:CDISCSynonym>
                    <nciodm:CDISCDefinition>Auditory Verbal Learning Test Version A - List B, Word 7.</nciodm:CDISCDefinition>
                    <nciodm:PreferredTerm>ADNI AVLT - List B Recall Word 7</nciodm:PreferredTerm>
                </EnumeratedItem>
                <EnumeratedItem CodedValue="AVL01110" nciodm:ExtCodeID="C102005">
                    <nciodm:CDISCSynonym>AVL01-List B Recall Word 8</nciodm:CDISCSynonym>
                    <nciodm:CDISCDefinition>Auditory Verbal Learning Test Version A - List B, Word 8.</nciodm:CDISCDefinition>
                    <nciodm:PreferredTerm>ADNI AVLT - List B Recall Word 8</nciodm:PreferredTerm>
                </EnumeratedItem>
                <EnumeratedItem CodedValue="AVL01111" nciodm:ExtCodeID="C102006">
                    <nciodm:CDISCSynonym>AVL01-List B Recall Word 9</nciodm:CDISCSynonym>
                    <nciodm:CDISCDefinition>Auditory Verbal Learning Test Version A - List B, Word 9.</nciodm:CDISCDefinition>
                    <nciodm:PreferredTerm>ADNI AVLT - List B Recall Word 9</nciodm:PreferredTerm>
                </EnumeratedItem>
                <EnumeratedItem CodedValue="AVL01112" nciodm:ExtCodeID="C102007">
                    <nciodm:CDISCSynonym>AVL01-List B Recall Word 10</nciodm:CDISCSynonym>
                    <nciodm:CDISCDefinition>Auditory Verbal Learning Test Version A - List B, Word 10.</nciodm:CDISCDefinition>
                    <nciodm:PreferredTerm>ADNI AVLT - List B Recall Word 10</nciodm:PreferredTerm>
                </EnumeratedItem>
                <EnumeratedItem CodedValue="AVL01113" nciodm:ExtCodeID="C102008">
                    <nciodm:CDISCSynonym>AVL01-List B Recall Word 11</nciodm:CDISCSynonym>
                    <nciodm:CDISCDefinition>Auditory Verbal Learning Test Version A - List B, Word 11.</nciodm:CDISCDefinition>
                    <nciodm:PreferredTerm>ADNI AVLT - List B Recall Word 11</nciodm:PreferredTerm>
                </EnumeratedItem>
                <EnumeratedItem CodedValue="AVL01114" nciodm:ExtCodeID="C102009">
                    <nciodm:CDISCSynonym>AVL01-List B Recall Word 12</nciodm:CDISCSynonym>
                    <nciodm:CDISCDefinition>Auditory Verbal Learning Test Version A - List B, Word 12.</nciodm:CDISCDefinition>
                    <nciodm:PreferredTerm>ADNI AVLT - List B Recall Word 12</nciodm:PreferredTerm>
                </EnumeratedItem>
                <EnumeratedItem CodedValue="AVL01115" nciodm:ExtCodeID="C102010">
                    <nciodm:CDISCSynonym>AVL01-List B Recall Word 13</nciodm:CDISCSynonym>
                    <nciodm:CDISCDefinition>Auditory Verbal Learning Test Version A - List B, Word 13.</nciodm:CDISCDefinition>
                    <nciodm:PreferredTerm>ADNI AVLT - List B Recall Word 13</nciodm:PreferredTerm>
                </EnumeratedItem>
                <EnumeratedItem CodedValue="AVL01116" nciodm:ExtCodeID="C102011">
                    <nciodm:CDISCSynonym>AVL01-List B Recall Word 14</nciodm:CDISCSynonym>
                    <nciodm:CDISCDefinition>Auditory Verbal Learning Test Version A - List B, Word 14.</nciodm:CDISCDefinition>
                    <nciodm:PreferredTerm>ADNI AVLT - List B Recall Word 14</nciodm:PreferredTerm>
                </EnumeratedItem>
                <EnumeratedItem CodedValue="AVL01117" nciodm:ExtCodeID="C102012">
                    <nciodm:CDISCSynonym>AVL01-List B Recall Word 15</nciodm:CDISCSynonym>
                    <nciodm:CDISCDefinition>Auditory Verbal Learning Test Version A - List B, Word 15.</nciodm:CDISCDefinition>
                    <nciodm:PreferredTerm>ADNI AVLT - List B Recall Word 15</nciodm:PreferredTerm>
                </EnumeratedItem>
                <EnumeratedItem CodedValue="AVL01118" nciodm:ExtCodeID="C102013">
                    <nciodm:CDISCSynonym>AVL01-List B Recall Total</nciodm:CDISCSynonym>
                    <nciodm:CDISCDefinition>Auditory Verbal Learning Test Version A - The number of words recalled from List B.</nciodm:CDISCDefinition>
                    <nciodm:PreferredTerm>ADNI AVLT - List B Recall Total</nciodm:PreferredTerm>
                </EnumeratedItem>
                <EnumeratedItem CodedValue="AVL01119" nciodm:ExtCodeID="C102014">
                    <nciodm:CDISCSynonym>AVL01-List B Intrusions</nciodm:CDISCSynonym>
                    <nciodm:CDISCDefinition>Auditory Verbal Learning Test Version A - The number of intrusions while recalling List B.</nciodm:CDISCDefinition>
                    <nciodm:PreferredTerm>ADNI AVLT - List B Intrusions</nciodm:PreferredTerm>
                </EnumeratedItem>
                <EnumeratedItem CodedValue="AVL01120" nciodm:ExtCodeID="C102015">
                    <nciodm:CDISCSynonym>AVL01-List A 30 Min Delay Recall Word 1</nciodm:CDISCSynonym>
                    <nciodm:CDISCDefinition>Auditory Verbal Learning Test Version A - List A, 30 Minute Delay Recall, Word 1.</nciodm:CDISCDefinition>
                    <nciodm:PreferredTerm>ADNI AVLT - List A 30 Min Delay Recall Word 1</nciodm:PreferredTerm>
                </EnumeratedItem>
                <EnumeratedItem CodedValue="AVL01121" nciodm:ExtCodeID="C102016">
                    <nciodm:CDISCSynonym>AVL01-List A 30 Min Delay Recall Word 2</nciodm:CDISCSynonym>
                    <nciodm:CDISCDefinition>Auditory Verbal Learning Test Version A - List A, 30 Minute Delay Recall, Word 2.</nciodm:CDISCDefinition>
                    <nciodm:PreferredTerm>ADNI AVLT - List A 30 Min Delay Recall Word 2</nciodm:PreferredTerm>
                </EnumeratedItem>
                <EnumeratedItem CodedValue="AVL01122" nciodm:ExtCodeID="C102017">
                    <nciodm:CDISCSynonym>AVL01-List A 30 Min Delay Recall Word 3</nciodm:CDISCSynonym>
                    <nciodm:CDISCDefinition>Auditory Verbal Learning Test Version A - List A, 30 Minute Delay Recall, Word 3.</nciodm:CDISCDefinition>
                    <nciodm:PreferredTerm>ADNI AVLT - List A 30 Min Delay Recall Word 3</nciodm:PreferredTerm>
                </EnumeratedItem>
                <EnumeratedItem CodedValue="AVL01123" nciodm:ExtCodeID="C102018">
                    <nciodm:CDISCSynonym>AVL01-List A 30 Min Delay Recall Word 4</nciodm:CDISCSynonym>
                    <nciodm:CDISCDefinition>Auditory Verbal Learning Test Version A - List A, 30 Minute Delay Recall, Word 4.</nciodm:CDISCDefinition>
                    <nciodm:PreferredTerm>ADNI AVLT - List A 30 Min Delay Recall Word 4</nciodm:PreferredTerm>
                </EnumeratedItem>
                <EnumeratedItem CodedValue="AVL01124" nciodm:ExtCodeID="C102019">
                    <nciodm:CDISCSynonym>AVL01-List A 30 Min Delay Recall Word 5</nciodm:CDISCSynonym>
                    <nciodm:CDISCDefinition>Auditory Verbal Learning Test Version A - List A, 30 Minute Delay Recall, Word 5.</nciodm:CDISCDefinition>
                    <nciodm:PreferredTerm>ADNI AVLT - List A 30 Min Delay Recall Word 5</nciodm:PreferredTerm>
                </EnumeratedItem>
                <EnumeratedItem CodedValue="AVL01125" nciodm:ExtCodeID="C102020">
                    <nciodm:CDISCSynonym>AVL01-List A 30 Min Delay Recall Word 6</nciodm:CDISCSynonym>
                    <nciodm:CDISCDefinition>Auditory Verbal Learning Test Version A - List A, 30 Minute Delay Recall, Word 6.</nciodm:CDISCDefinition>
                    <nciodm:PreferredTerm>ADNI AVLT - List A 30 Min Delay Recall Word 6</nciodm:PreferredTerm>
                </EnumeratedItem>
                <EnumeratedItem CodedValue="AVL01126" nciodm:ExtCodeID="C102021">
                    <nciodm:CDISCSynonym>AVL01-List A 30 Min Delay Recall Word 7</nciodm:CDISCSynonym>
                    <nciodm:CDISCDefinition>Auditory Verbal Learning Test Version A - List A, 30 Minute Delay Recall, Word 7.</nciodm:CDISCDefinition>
                    <nciodm:PreferredTerm>ADNI AVLT - List A 30 Min Delay Recall Word 7</nciodm:PreferredTerm>
                </EnumeratedItem>
                <EnumeratedItem CodedValue="AVL01127" nciodm:ExtCodeID="C102022">
                    <nciodm:CDISCSynonym>AVL01-List A 30 Min Delay Recall Word 8</nciodm:CDISCSynonym>
                    <nciodm:CDISCDefinition>Auditory Verbal Learning Test Version A - List A, 30 Minute Delay Recall, Word 8.</nciodm:CDISCDefinition>
                    <nciodm:PreferredTerm>ADNI AVLT - List A 30 Min Delay Recall Word 8</nciodm:PreferredTerm>
                </EnumeratedItem>
                <EnumeratedItem CodedValue="AVL01128" nciodm:ExtCodeID="C102023">
                    <nciodm:CDISCSynonym>AVL01-List A 30 Min Delay Recall Word 9</nciodm:CDISCSynonym>
                    <nciodm:CDISCDefinition>Auditory Verbal Learning Test Version A - List A, 30 Minute Delay Recall, Word 9.</nciodm:CDISCDefinition>
                    <nciodm:PreferredTerm>ADNI AVLT - List A 30 Min Delay Recall Word 9</nciodm:PreferredTerm>
                </EnumeratedItem>
                <EnumeratedItem CodedValue="AVL01129" nciodm:ExtCodeID="C102024">
                    <nciodm:CDISCSynonym>AVL01-List A 30 Min Delay Recall Word 10</nciodm:CDISCSynonym>
                    <nciodm:CDISCDefinition>Auditory Verbal Learning Test Version A - List A, 30 Minute Delay Recall, Word 10.</nciodm:CDISCDefinition>
                    <nciodm:PreferredTerm>ADNI AVLT - List A 30 Min Delay Recall Word 10</nciodm:PreferredTerm>
                </EnumeratedItem>
                <EnumeratedItem CodedValue="AVL01130" nciodm:ExtCodeID="C102025">
                    <nciodm:CDISCSynonym>AVL01-List A 30 Min Delay Recall Word 11</nciodm:CDISCSynonym>
                    <nciodm:CDISCDefinition>Auditory Verbal Learning Test Version A - List A, 30 Minute Delay Recall, Word 11.</nciodm:CDISCDefinition>
                    <nciodm:PreferredTerm>ADNI AVLT - List A 30 Min Delay Recall Word 11</nciodm:PreferredTerm>
                </EnumeratedItem>
                <EnumeratedItem CodedValue="AVL01131" nciodm:ExtCodeID="C102026">
                    <nciodm:CDISCSynonym>AVL01-List A 30 Min Delay Recall Word 12</nciodm:CDISCSynonym>
                    <nciodm:CDISCDefinition>Auditory Verbal Learning Test Version A - List A, 30 Minute Delay Recall, Word 12.</nciodm:CDISCDefinition>
                    <nciodm:PreferredTerm>ADNI AVLT - List A 30 Min Delay Recall Word 12</nciodm:PreferredTerm>
                </EnumeratedItem>
                <EnumeratedItem CodedValue="AVL01132" nciodm:ExtCodeID="C102027">
                    <nciodm:CDISCSynonym>AVL01-List A 30 Min Delay Recall Word 13</nciodm:CDISCSynonym>
                    <nciodm:CDISCDefinition>Auditory Verbal Learning Test Version A - List A, 30 Minute Delay Recall, Word 13.</nciodm:CDISCDefinition>
                    <nciodm:PreferredTerm>ADNI AVLT - List A 30 Min Delay Recall Word 13</nciodm:PreferredTerm>
                </EnumeratedItem>
                <EnumeratedItem CodedValue="AVL01133" nciodm:ExtCodeID="C102028">
                    <nciodm:CDISCSynonym>AVL01-List A 30 Min Delay Recall Word 14</nciodm:CDISCSynonym>
                    <nciodm:CDISCDefinition>Auditory Verbal Learning Test Version A - List A, 30 Minute Delay Recall, Word 14.</nciodm:CDISCDefinition>
                    <nciodm:PreferredTerm>ADNI AVLT - List A 30 Min Delay Recall Word 14</nciodm:PreferredTerm>
                </EnumeratedItem>
                <EnumeratedItem CodedValue="AVL01134" nciodm:ExtCodeID="C102029">
                    <nciodm:CDISCSynonym>AVL01-List A 30 Min Delay Recall Word 15</nciodm:CDISCSynonym>
                    <nciodm:CDISCDefinition>Auditory Verbal Learning Test Version A - List A, 30 Minute Delay Recall, Word 15.</nciodm:CDISCDefinition>
                    <nciodm:PreferredTerm>ADNI AVLT - List A 30 Min Delay Recall Word 15</nciodm:PreferredTerm>
                </EnumeratedItem>
                <EnumeratedItem CodedValue="AVL01135" nciodm:ExtCodeID="C102030">
                    <nciodm:CDISCSynonym>AVL01-List A 30 Min Delay Recall Total</nciodm:CDISCSynonym>
                    <nciodm:CDISCDefinition>Auditory Verbal Learning Test Version A - The number of words recalled from List A, 30 Minute Delay recall.</nciodm:CDISCDefinition>
                    <nciodm:PreferredTerm>ADNI AVLT - List A 30 Min Delay Recall Total</nciodm:PreferredTerm>
                </EnumeratedItem>
                <EnumeratedItem CodedValue="AVL01136" nciodm:ExtCodeID="C102031">
                    <nciodm:CDISCSynonym>AVL01-List A 30 Min Delay Intrusions</nciodm:CDISCSynonym>
                    <nciodm:CDISCDefinition>Auditory Verbal Learning Test Version A - The number of intrusions while recalling List A, 30 Minute Delay.</nciodm:CDISCDefinition>
                    <nciodm:PreferredTerm>ADNI AVLT - List A 30 Min Delay Intrusions</nciodm:PreferredTerm>
                </EnumeratedItem>
                <EnumeratedItem CodedValue="AVL01137" nciodm:ExtCodeID="C102032">
                    <nciodm:CDISCSynonym>AVL01-List A Recognition Total</nciodm:CDISCSynonym>
                    <nciodm:CDISCDefinition>Auditory Verbal Learning Test Version A - The number of words correct on recognition test.</nciodm:CDISCDefinition>
                    <nciodm:PreferredTerm>ADNI AVLT - List A Recognition Total</nciodm:PreferredTerm>
                </EnumeratedItem>
                <EnumeratedItem CodedValue="AVL01138" nciodm:ExtCodeID="C102033">
                    <nciodm:CDISCSynonym>AVL01-List A Recognition Intrusions</nciodm:CDISCSynonym>
                    <nciodm:CDISCDefinition>Auditory Verbal Learning Test Version A - The number of intrusions on recognition test.</nciodm:CDISCDefinition>
                    <nciodm:PreferredTerm>ADNI AVLT - List A Recognition Intrusions</nciodm:PreferredTerm>
                </EnumeratedItem>
                <nciodm:CDISCSubmissionValue>AVLT TESTCD</nciodm:CDISCSubmissionValue>
                <nciodm:CDISCSynonym>QS-ADNI AVLT Test Code</nciodm:CDISCSynonym>
                <nciodm:PreferredTerm>CDISC Questionnaire ADNI AVLT Test Code Terminology</nciodm:PreferredTerm>
            </CodeList>
            <CodeList OID="CL.C101808.AVLT TEST" Name="QS-ADNI AVLT Test Name" DataType="text" nciodm:ExtCodeID="C101808" nciodm:CodeListExtensible="No">
                <Description>
                    <TranslatedText xml:lang="en">ADNI AVLT test name.</TranslatedText>
                </Description>
                <EnumeratedItem CodedValue="AVL01-List A 30 Min Delay Intrusions" nciodm:ExtCodeID="C102031">
                    <nciodm:CDISCSynonym>AVL01-List A 30 Min Delay Intrusions</nciodm:CDISCSynonym>
                    <nciodm:CDISCDefinition>Auditory Verbal Learning Test Version A - The number of intrusions while recalling List A, 30 Minute Delay.</nciodm:CDISCDefinition>
                    <nciodm:PreferredTerm>ADNI AVLT - List A 30 Min Delay Intrusions</nciodm:PreferredTerm>
                </EnumeratedItem>
                <EnumeratedItem CodedValue="AVL01-List A 30 Min Delay Recall Total" nciodm:ExtCodeID="C102030">
                    <nciodm:CDISCSynonym>AVL01-List A 30 Min Delay Recall Total</nciodm:CDISCSynonym>
                    <nciodm:CDISCDefinition>Auditory Verbal Learning Test Version A - The number of words recalled from List A, 30 Minute Delay recall.</nciodm:CDISCDefinition>
                    <nciodm:PreferredTerm>ADNI AVLT - List A 30 Min Delay Recall Total</nciodm:PreferredTerm>
                </EnumeratedItem>
                <EnumeratedItem CodedValue="AVL01-List A 30 Min Delay Recall Word 1" nciodm:ExtCodeID="C102015">
                    <nciodm:CDISCSynonym>AVL01-List A 30 Min Delay Recall Word 1</nciodm:CDISCSynonym>
                    <nciodm:CDISCDefinition>Auditory Verbal Learning Test Version A - List A, 30 Minute Delay Recall, Word 1.</nciodm:CDISCDefinition>
                    <nciodm:PreferredTerm>ADNI AVLT - List A 30 Min Delay Recall Word 1</nciodm:PreferredTerm>
                </EnumeratedItem>
                <EnumeratedItem CodedValue="AVL01-List A 30 Min Delay Recall Word 10" nciodm:ExtCodeID="C102024">
                    <nciodm:CDISCSynonym>AVL01-List A 30 Min Delay Recall Word 10</nciodm:CDISCSynonym>
                    <nciodm:CDISCDefinition>Auditory Verbal Learning Test Version A - List A, 30 Minute Delay Recall, Word 10.</nciodm:CDISCDefinition>
                    <nciodm:PreferredTerm>ADNI AVLT - List A 30 Min Delay Recall Word 10</nciodm:PreferredTerm>
                </EnumeratedItem>
                <EnumeratedItem CodedValue="AVL01-List A 30 Min Delay Recall Word 11" nciodm:ExtCodeID="C102025">
                    <nciodm:CDISCSynonym>AVL01-List A 30 Min Delay Recall Word 11</nciodm:CDISCSynonym>
                    <nciodm:CDISCDefinition>Auditory Verbal Learning Test Version A - List A, 30 Minute Delay Recall, Word 11.</nciodm:CDISCDefinition>
                    <nciodm:PreferredTerm>ADNI AVLT - List A 30 Min Delay Recall Word 11</nciodm:PreferredTerm>
                </EnumeratedItem>
                <EnumeratedItem CodedValue="AVL01-List A 30 Min Delay Recall Word 12" nciodm:ExtCodeID="C102026">
                    <nciodm:CDISCSynonym>AVL01-List A 30 Min Delay Recall Word 12</nciodm:CDISCSynonym>
                    <nciodm:CDISCDefinition>Auditory Verbal Learning Test Version A - List A, 30 Minute Delay Recall, Word 12.</nciodm:CDISCDefinition>
                    <nciodm:PreferredTerm>ADNI AVLT - List A 30 Min Delay Recall Word 12</nciodm:PreferredTerm>
                </EnumeratedItem>
                <EnumeratedItem CodedValue="AVL01-List A 30 Min Delay Recall Word 13" nciodm:ExtCodeID="C102027">
                    <nciodm:CDISCSynonym>AVL01-List A 30 Min Delay Recall Word 13</nciodm:CDISCSynonym>
                    <nciodm:CDISCDefinition>Auditory Verbal Learning Test Version A - List A, 30 Minute Delay Recall, Word 13.</nciodm:CDISCDefinition>
                    <nciodm:PreferredTerm>ADNI AVLT - List A 30 Min Delay Recall Word 13</nciodm:PreferredTerm>
                </EnumeratedItem>
                <EnumeratedItem CodedValue="AVL01-List A 30 Min Delay Recall Word 14" nciodm:ExtCodeID="C102028">
                    <nciodm:CDISCSynonym>AVL01-List A 30 Min Delay Recall Word 14</nciodm:CDISCSynonym>
                    <nciodm:CDISCDefinition>Auditory Verbal Learning Test Version A - List A, 30 Minute Delay Recall, Word 14.</nciodm:CDISCDefinition>
                    <nciodm:PreferredTerm>ADNI AVLT - List A 30 Min Delay Recall Word 14</nciodm:PreferredTerm>
                </EnumeratedItem>
                <EnumeratedItem CodedValue="AVL01-List A 30 Min Delay Recall Word 15" nciodm:ExtCodeID="C102029">
                    <nciodm:CDISCSynonym>AVL01-List A 30 Min Delay Recall Word 15</nciodm:CDISCSynonym>
                    <nciodm:CDISCDefinition>Auditory Verbal Learning Test Version A - List A, 30 Minute Delay Recall, Word 15.</nciodm:CDISCDefinition>
                    <nciodm:PreferredTerm>ADNI AVLT - List A 30 Min Delay Recall Word 15</nciodm:PreferredTerm>
                </EnumeratedItem>
                <EnumeratedItem CodedValue="AVL01-List A 30 Min Delay Recall Word 2" nciodm:ExtCodeID="C102016">
                    <nciodm:CDISCSynonym>AVL01-List A 30 Min Delay Recall Word 2</nciodm:CDISCSynonym>
                    <nciodm:CDISCDefinition>Auditory Verbal Learning Test Version A - List A, 30 Minute Delay Recall, Word 2.</nciodm:CDISCDefinition>
                    <nciodm:PreferredTerm>ADNI AVLT - List A 30 Min Delay Recall Word 2</nciodm:PreferredTerm>
                </EnumeratedItem>
                <EnumeratedItem CodedValue="AVL01-List A 30 Min Delay Recall Word 3" nciodm:ExtCodeID="C102017">
                    <nciodm:CDISCSynonym>AVL01-List A 30 Min Delay Recall Word 3</nciodm:CDISCSynonym>
                    <nciodm:CDISCDefinition>Auditory Verbal Learning Test Version A - List A, 30 Minute Delay Recall, Word 3.</nciodm:CDISCDefinition>
                    <nciodm:PreferredTerm>ADNI AVLT - List A 30 Min Delay Recall Word 3</nciodm:PreferredTerm>
                </EnumeratedItem>
                <EnumeratedItem CodedValue="AVL01-List A 30 Min Delay Recall Word 4" nciodm:ExtCodeID="C102018">
                    <nciodm:CDISCSynonym>AVL01-List A 30 Min Delay Recall Word 4</nciodm:CDISCSynonym>
                    <nciodm:CDISCDefinition>Auditory Verbal Learning Test Version A - List A, 30 Minute Delay Recall, Word 4.</nciodm:CDISCDefinition>
                    <nciodm:PreferredTerm>ADNI AVLT - List A 30 Min Delay Recall Word 4</nciodm:PreferredTerm>
                </EnumeratedItem>
                <EnumeratedItem CodedValue="AVL01-List A 30 Min Delay Recall Word 5" nciodm:ExtCodeID="C102019">
                    <nciodm:CDISCSynonym>AVL01-List A 30 Min Delay Recall Word 5</nciodm:CDISCSynonym>
                    <nciodm:CDISCDefinition>Auditory Verbal Learning Test Version A - List A, 30 Minute Delay Recall, Word 5.</nciodm:CDISCDefinition>
                    <nciodm:PreferredTerm>ADNI AVLT - List A 30 Min Delay Recall Word 5</nciodm:PreferredTerm>
                </EnumeratedItem>
                <EnumeratedItem CodedValue="AVL01-List A 30 Min Delay Recall Word 6" nciodm:ExtCodeID="C102020">
                    <nciodm:CDISCSynonym>AVL01-List A 30 Min Delay Recall Word 6</nciodm:CDISCSynonym>
                    <nciodm:CDISCDefinition>Auditory Verbal Learning Test Version A - List A, 30 Minute Delay Recall, Word 6.</nciodm:CDISCDefinition>
                    <nciodm:PreferredTerm>ADNI AVLT - List A 30 Min Delay Recall Word 6</nciodm:PreferredTerm>
                </EnumeratedItem>
                <EnumeratedItem CodedValue="AVL01-List A 30 Min Delay Recall Word 7" nciodm:ExtCodeID="C102021">
                    <nciodm:CDISCSynonym>AVL01-List A 30 Min Delay Recall Word 7</nciodm:CDISCSynonym>
                    <nciodm:CDISCDefinition>Auditory Verbal Learning Test Version A - List A, 30 Minute Delay Recall, Word 7.</nciodm:CDISCDefinition>
                    <nciodm:PreferredTerm>ADNI AVLT - List A 30 Min Delay Recall Word 7</nciodm:PreferredTerm>
                </EnumeratedItem>
                <EnumeratedItem CodedValue="AVL01-List A 30 Min Delay Recall Word 8" nciodm:ExtCodeID="C102022">
                    <nciodm:CDISCSynonym>AVL01-List A 30 Min Delay Recall Word 8</nciodm:CDISCSynonym>
                    <nciodm:CDISCDefinition>Auditory Verbal Learning Test Version A - List A, 30 Minute Delay Recall, Word 8.</nciodm:CDISCDefinition>
                    <nciodm:PreferredTerm>ADNI AVLT - List A 30 Min Delay Recall Word 8</nciodm:PreferredTerm>
                </EnumeratedItem>
                <EnumeratedItem CodedValue="AVL01-List A 30 Min Delay Recall Word 9" nciodm:ExtCodeID="C102023">
                    <nciodm:CDISCSynonym>AVL01-List A 30 Min Delay Recall Word 9</nciodm:CDISCSynonym>
                    <nciodm:CDISCDefinition>Auditory Verbal Learning Test Version A - List A, 30 Minute Delay Recall, Word 9.</nciodm:CDISCDefinition>
                    <nciodm:PreferredTerm>ADNI AVLT - List A 30 Min Delay Recall Word 9</nciodm:PreferredTerm>
                </EnumeratedItem>
                <EnumeratedItem CodedValue="AVL01-List A Intrusions 1" nciodm:ExtCodeID="C101912">
                    <nciodm:CDISCSynonym>AVL01-List A Intrusions 1</nciodm:CDISCSynonym>
                    <nciodm:CDISCDefinition>Auditory Verbal Learning Test Version A - The number of intrusions while recalling List A, first attempt.</nciodm:CDISCDefinition>
                    <nciodm:PreferredTerm>ADNI AVLT - List A Intrusions 1</nciodm:PreferredTerm>
                </EnumeratedItem>
                <EnumeratedItem CodedValue="AVL01-List A Intrusions 2" nciodm:ExtCodeID="C101929">
                    <nciodm:CDISCSynonym>AVL01-List A Intrusions 2</nciodm:CDISCSynonym>
                    <nciodm:CDISCDefinition>Auditory Verbal Learning Test Version A - The number of intrusions while recalling List A, second attempt.</nciodm:CDISCDefinition>
                    <nciodm:PreferredTerm>ADNI AVLT - List A Intrusions 2</nciodm:PreferredTerm>
                </EnumeratedItem>
                <EnumeratedItem CodedValue="AVL01-List A Intrusions 3" nciodm:ExtCodeID="C101946">
                    <nciodm:CDISCSynonym>AVL01-List A Intrusions 3</nciodm:CDISCSynonym>
                    <nciodm:CDISCDefinition>Auditory Verbal Learning Test Version A - The number of intrusions while recalling List A, third attempt.</nciodm:CDISCDefinition>
                    <nciodm:PreferredTerm>ADNI AVLT - List A Intrusions 3</nciodm:PreferredTerm>
                </EnumeratedItem>
                <EnumeratedItem CodedValue="AVL01-List A Intrusions 4" nciodm:ExtCodeID="C101963">
                    <nciodm:CDISCSynonym>AVL01-List A Intrusions 4</nciodm:CDISCSynonym>
                    <nciodm:CDISCDefinition>Auditory Verbal Learning Test Version A - The number of intrusions while recalling List A, fourth attempt.</nciodm:CDISCDefinition>
                    <nciodm:PreferredTerm>ADNI AVLT - List A Intrusions 4</nciodm:PreferredTerm>
                </EnumeratedItem>
                <EnumeratedItem CodedValue="AVL01-List A Intrusions 5" nciodm:ExtCodeID="C101980">
                    <nciodm:CDISCSynonym>AVL01-List A Intrusions 5</nciodm:CDISCSynonym>
                    <nciodm:CDISCDefinition>Auditory Verbal Learning Test Version A - The number of intrusions while recalling List A, fifth attempt.</nciodm:CDISCDefinition>
                    <nciodm:PreferredTerm>ADNI AVLT - List A Intrusions 5</nciodm:PreferredTerm>
                </EnumeratedItem>
                <EnumeratedItem CodedValue="AVL01-List A Intrusions 6" nciodm:ExtCodeID="C101997">
                    <nciodm:CDISCSynonym>AVL01-List A Intrusions 6</nciodm:CDISCSynonym>
                    <nciodm:CDISCDefinition>Auditory Verbal Learning Test Version A - The number of intrusions while recalling List A, sixth attempt (after List B recall).</nciodm:CDISCDefinition>
                    <nciodm:PreferredTerm>ADNI AVLT - List A Intrusions 6</nciodm:PreferredTerm>
                </EnumeratedItem>
                <EnumeratedItem CodedValue="AVL01-List A Recall 1 Total" nciodm:ExtCodeID="C101911">
                    <nciodm:CDISCSynonym>AVL01-List A Recall 1 Total</nciodm:CDISCSynonym>
                    <nciodm:CDISCDefinition>Auditory Verbal Learning Test Version A - The number of words recalled from List A, first attempt.</nciodm:CDISCDefinition>
                    <nciodm:PreferredTerm>ADNI AVLT - List A Recall 1 Total</nciodm:PreferredTerm>
                </EnumeratedItem>
                <EnumeratedItem CodedValue="AVL01-List A Recall 1 Word 1" nciodm:ExtCodeID="C101896">
                    <nciodm:CDISCSynonym>AVL01-List A Recall 1 Word 1</nciodm:CDISCSynonym>
                    <nciodm:CDISCDefinition>Auditory Verbal Learning Test Version A - List A, Recall 1, Word 1.</nciodm:CDISCDefinition>
                    <nciodm:PreferredTerm>ADNI AVLT - List A Recall 1 Word 1</nciodm:PreferredTerm>
                </EnumeratedItem>
                <EnumeratedItem CodedValue="AVL01-List A Recall 1 Word 10" nciodm:ExtCodeID="C101905">
                    <nciodm:CDISCSynonym>AVL01-List A Recall 1 Word 10</nciodm:CDISCSynonym>
                    <nciodm:CDISCDefinition>Auditory Verbal Learning Test Version A - List A, Recall 1, Word 10.</nciodm:CDISCDefinition>
                    <nciodm:PreferredTerm>ADNI AVLT - List A Recall 1 Word 10</nciodm:PreferredTerm>
                </EnumeratedItem>
                <EnumeratedItem CodedValue="AVL01-List A Recall 1 Word 11" nciodm:ExtCodeID="C101906">
                    <nciodm:CDISCSynonym>AVL01-List A Recall 1 Word 11</nciodm:CDISCSynonym>
                    <nciodm:CDISCDefinition>Auditory Verbal Learning Test Version A - List A, Recall 1, Word 11.</nciodm:CDISCDefinition>
                    <nciodm:PreferredTerm>ADNI AVLT - List A Recall 1 Word 11</nciodm:PreferredTerm>
                </EnumeratedItem>
                <EnumeratedItem CodedValue="AVL01-List A Recall 1 Word 12" nciodm:ExtCodeID="C101907">
                    <nciodm:CDISCSynonym>AVL01-List A Recall 1 Word 12</nciodm:CDISCSynonym>
                    <nciodm:CDISCDefinition>Auditory Verbal Learning Test Version A - List A, Recall 1, Word 12.</nciodm:CDISCDefinition>
                    <nciodm:PreferredTerm>ADNI AVLT - List A Recall 1 Word 12</nciodm:PreferredTerm>
                </EnumeratedItem>
                <EnumeratedItem CodedValue="AVL01-List A Recall 1 Word 13" nciodm:ExtCodeID="C101908">
                    <nciodm:CDISCSynonym>AVL01-List A Recall 1 Word 13</nciodm:CDISCSynonym>
                    <nciodm:CDISCDefinition>Auditory Verbal Learning Test Version A - List A, Recall 1, Word 13.</nciodm:CDISCDefinition>
                    <nciodm:PreferredTerm>ADNI AVLT - List A Recall 1 Word 13</nciodm:PreferredTerm>
                </EnumeratedItem>
                <EnumeratedItem CodedValue="AVL01-List A Recall 1 Word 14" nciodm:ExtCodeID="C101909">
                    <nciodm:CDISCSynonym>AVL01-List A Recall 1 Word 14</nciodm:CDISCSynonym>
                    <nciodm:CDISCDefinition>Auditory Verbal Learning Test Version A - List A, Recall 1, Word 14.</nciodm:CDISCDefinition>
                    <nciodm:PreferredTerm>ADNI AVLT - List A Recall 1 Word 14</nciodm:PreferredTerm>
                </EnumeratedItem>
                <EnumeratedItem CodedValue="AVL01-List A Recall 1 Word 15" nciodm:ExtCodeID="C101910">
                    <nciodm:CDISCSynonym>AVL01-List A Recall 1 Word 15</nciodm:CDISCSynonym>
                    <nciodm:CDISCDefinition>Auditory Verbal Learning Test Version A - List A, Recall 1, Word 15.</nciodm:CDISCDefinition>
                    <nciodm:PreferredTerm>ADNI AVLT - List A Recall 1 Word 15</nciodm:PreferredTerm>
                </EnumeratedItem>
                <EnumeratedItem CodedValue="AVL01-List A Recall 1 Word 2" nciodm:ExtCodeID="C101897">
                    <nciodm:CDISCSynonym>AVL01-List A Recall 1 Word 2</nciodm:CDISCSynonym>
                    <nciodm:CDISCDefinition>Auditory Verbal Learning Test Version A - List A, Recall 1, Word 2.</nciodm:CDISCDefinition>
                    <nciodm:PreferredTerm>ADNI AVLT - List A Recall 1 Word 2</nciodm:PreferredTerm>
                </EnumeratedItem>
                <EnumeratedItem CodedValue="AVL01-List A Recall 1 Word 3" nciodm:ExtCodeID="C101898">
                    <nciodm:CDISCSynonym>AVL01-List A Recall 1 Word 3</nciodm:CDISCSynonym>
                    <nciodm:CDISCDefinition>Auditory Verbal Learning Test Version A - List A, Recall 1, Word 3.</nciodm:CDISCDefinition>
                    <nciodm:PreferredTerm>ADNI AVLT - List A Recall 1 Word 3</nciodm:PreferredTerm>
                </EnumeratedItem>
                <EnumeratedItem CodedValue="AVL01-List A Recall 1 Word 4" nciodm:ExtCodeID="C101899">
                    <nciodm:CDISCSynonym>AVL01-List A Recall 1 Word 4</nciodm:CDISCSynonym>
                    <nciodm:CDISCDefinition>Auditory Verbal Learning Test Version A - List A, Recall 1, Word 4.</nciodm:CDISCDefinition>
                    <nciodm:PreferredTerm>ADNI AVLT - List A Recall 1 Word 4</nciodm:PreferredTerm>
                </EnumeratedItem>
                <EnumeratedItem CodedValue="AVL01-List A Recall 1 Word 5" nciodm:ExtCodeID="C101900">
                    <nciodm:CDISCSynonym>AVL01-List A Recall 1 Word 5</nciodm:CDISCSynonym>
                    <nciodm:CDISCDefinition>Auditory Verbal Learning Test Version A - List A, Recall 1, Word 5.</nciodm:CDISCDefinition>
                    <nciodm:PreferredTerm>ADNI AVLT - List A Recall 1 Word 5</nciodm:PreferredTerm>
                </EnumeratedItem>
                <EnumeratedItem CodedValue="AVL01-List A Recall 1 Word 6" nciodm:ExtCodeID="C101901">
                    <nciodm:CDISCSynonym>AVL01-List A Recall 1 Word 6</nciodm:CDISCSynonym>
                    <nciodm:CDISCDefinition>Auditory Verbal Learning Test Version A - List A, Recall 1, Word 6.</nciodm:CDISCDefinition>
                    <nciodm:PreferredTerm>ADNI AVLT - List A Recall 1 Word 6</nciodm:PreferredTerm>
                </EnumeratedItem>
                <EnumeratedItem CodedValue="AVL01-List A Recall 1 Word 7" nciodm:ExtCodeID="C101902">
                    <nciodm:CDISCSynonym>AVL01-List A Recall 1 Word 7</nciodm:CDISCSynonym>
                    <nciodm:CDISCDefinition>Auditory Verbal Learning Test Version A - List A, Recall 1, Word 7.</nciodm:CDISCDefinition>
                    <nciodm:PreferredTerm>ADNI AVLT - List A Recall 1 Word 7</nciodm:PreferredTerm>
                </EnumeratedItem>
                <EnumeratedItem CodedValue="AVL01-List A Recall 1 Word 8" nciodm:ExtCodeID="C101903">
                    <nciodm:CDISCSynonym>AVL01-List A Recall 1 Word 8</nciodm:CDISCSynonym>
                    <nciodm:CDISCDefinition>Auditory Verbal Learning Test Version A - List A, Recall 1, Word 8.</nciodm:CDISCDefinition>
                    <nciodm:PreferredTerm>ADNI AVLT - List A Recall 1 Word 8</nciodm:PreferredTerm>
                </EnumeratedItem>
                <EnumeratedItem CodedValue="AVL01-List A Recall 1 Word 9" nciodm:ExtCodeID="C101904">
                    <nciodm:CDISCSynonym>AVL01-List A Recall 1 Word 9</nciodm:CDISCSynonym>
                    <nciodm:CDISCDefinition>Auditory Verbal Learning Test Version A - List A, Recall 1, Word 9.</nciodm:CDISCDefinition>
                    <nciodm:PreferredTerm>ADNI AVLT - List A Recall 1 Word 9</nciodm:PreferredTerm>
                </EnumeratedItem>
                <EnumeratedItem CodedValue="AVL01-List A Recall 2 Total" nciodm:ExtCodeID="C101928">
                    <nciodm:CDISCSynonym>AVL01-List A Recall 2 Total</nciodm:CDISCSynonym>
                    <nciodm:CDISCDefinition>Auditory Verbal Learning Test Version A - The number of words recalled from List A, second attempt.</nciodm:CDISCDefinition>
                    <nciodm:PreferredTerm>ADNI AVLT - List A Recall 2 Total</nciodm:PreferredTerm>
                </EnumeratedItem>
                <EnumeratedItem CodedValue="AVL01-List A Recall 2 Word 1" nciodm:ExtCodeID="C101913">
                    <nciodm:CDISCSynonym>AVL01-List A Recall 2 Word 1</nciodm:CDISCSynonym>
                    <nciodm:CDISCDefinition>Auditory Verbal Learning Test Version A - List A, Recall 2, Word 1.</nciodm:CDISCDefinition>
                    <nciodm:PreferredTerm>ADNI AVLT - List A Recall 2 Word 1</nciodm:PreferredTerm>
                </EnumeratedItem>
                <EnumeratedItem CodedValue="AVL01-List A Recall 2 Word 10" nciodm:ExtCodeID="C101922">
                    <nciodm:CDISCSynonym>AVL01-List A Recall 2 Word 10</nciodm:CDISCSynonym>
                    <nciodm:CDISCDefinition>Auditory Verbal Learning Test Version A - List A, Recall 2, Word 10.</nciodm:CDISCDefinition>
                    <nciodm:PreferredTerm>ADNI AVLT - List A Recall 2 Word 10</nciodm:PreferredTerm>
                </EnumeratedItem>
                <EnumeratedItem CodedValue="AVL01-List A Recall 2 Word 11" nciodm:ExtCodeID="C101923">
                    <nciodm:CDISCSynonym>AVL01-List A Recall 2 Word 11</nciodm:CDISCSynonym>
                    <nciodm:CDISCDefinition>Auditory Verbal Learning Test Version A - List A, Recall 2, Word 11.</nciodm:CDISCDefinition>
                    <nciodm:PreferredTerm>ADNI AVLT - List A Recall 2 Word 11</nciodm:PreferredTerm>
                </EnumeratedItem>
                <EnumeratedItem CodedValue="AVL01-List A Recall 2 Word 12" nciodm:ExtCodeID="C101924">
                    <nciodm:CDISCSynonym>AVL01-List A Recall 2 Word 12</nciodm:CDISCSynonym>
                    <nciodm:CDISCDefinition>Auditory Verbal Learning Test Version A - List A, Recall 2, Word 12.</nciodm:CDISCDefinition>
                    <nciodm:PreferredTerm>ADNI AVLT - List A Recall 2 Word 12</nciodm:PreferredTerm>
                </EnumeratedItem>
                <EnumeratedItem CodedValue="AVL01-List A Recall 2 Word 13" nciodm:ExtCodeID="C101925">
                    <nciodm:CDISCSynonym>AVL01-List A Recall 2 Word 13</nciodm:CDISCSynonym>
                    <nciodm:CDISCDefinition>Auditory Verbal Learning Test Version A - List A, Recall 2, Word 13.</nciodm:CDISCDefinition>
                    <nciodm:PreferredTerm>ADNI AVLT - List A Recall 2 Word 13</nciodm:PreferredTerm>
                </EnumeratedItem>
                <EnumeratedItem CodedValue="AVL01-List A Recall 2 Word 14" nciodm:ExtCodeID="C101926">
                    <nciodm:CDISCSynonym>AVL01-List A Recall 2 Word 14</nciodm:CDISCSynonym>
                    <nciodm:CDISCDefinition>Auditory Verbal Learning Test Version A - List A, Recall 2, Word 14.</nciodm:CDISCDefinition>
                    <nciodm:PreferredTerm>ADNI AVLT - List A Recall 2 Word 14</nciodm:PreferredTerm>
                </EnumeratedItem>
                <EnumeratedItem CodedValue="AVL01-List A Recall 2 Word 15" nciodm:ExtCodeID="C101927">
                    <nciodm:CDISCSynonym>AVL01-List A Recall 2 Word 15</nciodm:CDISCSynonym>
                    <nciodm:CDISCDefinition>Auditory Verbal Learning Test Version A - List A, Recall 2, Word 15.</nciodm:CDISCDefinition>
                    <nciodm:PreferredTerm>ADNI AVLT - List A Recall 2 Word 15</nciodm:PreferredTerm>
                </EnumeratedItem>
                <EnumeratedItem CodedValue="AVL01-List A Recall 2 Word 2" nciodm:ExtCodeID="C101914">
                    <nciodm:CDISCSynonym>AVL01-List A Recall 2 Word 2</nciodm:CDISCSynonym>
                    <nciodm:CDISCDefinition>Auditory Verbal Learning Test Version A - List A, Recall 2, Word 2.</nciodm:CDISCDefinition>
                    <nciodm:PreferredTerm>ADNI AVLT - List A Recall 2 Word 2</nciodm:PreferredTerm>
                </EnumeratedItem>
                <EnumeratedItem CodedValue="AVL01-List A Recall 2 Word 3" nciodm:ExtCodeID="C101915">
                    <nciodm:CDISCSynonym>AVL01-List A Recall 2 Word 3</nciodm:CDISCSynonym>
                    <nciodm:CDISCDefinition>Auditory Verbal Learning Test Version A - List A, Recall 2, Word 3.</nciodm:CDISCDefinition>
                    <nciodm:PreferredTerm>ADNI AVLT - List A Recall 2 Word 3</nciodm:PreferredTerm>
                </EnumeratedItem>
                <EnumeratedItem CodedValue="AVL01-List A Recall 2 Word 4" nciodm:ExtCodeID="C101916">
                    <nciodm:CDISCSynonym>AVL01-List A Recall 2 Word 4</nciodm:CDISCSynonym>
                    <nciodm:CDISCDefinition>Auditory Verbal Learning Test Version A - List A, Recall 2, Word 4.</nciodm:CDISCDefinition>
                    <nciodm:PreferredTerm>ADNI AVLT - List A Recall 2 Word 4</nciodm:PreferredTerm>
                </EnumeratedItem>
                <EnumeratedItem CodedValue="AVL01-List A Recall 2 Word 5" nciodm:ExtCodeID="C101917">
                    <nciodm:CDISCSynonym>AVL01-List A Recall 2 Word 5</nciodm:CDISCSynonym>
                    <nciodm:CDISCDefinition>Auditory Verbal Learning Test Version A - List A, Recall 2, Word 5.</nciodm:CDISCDefinition>
                    <nciodm:PreferredTerm>ADNI AVLT - List A Recall 2 Word 5</nciodm:PreferredTerm>
                </EnumeratedItem>
                <EnumeratedItem CodedValue="AVL01-List A Recall 2 Word 6" nciodm:ExtCodeID="C101918">
                    <nciodm:CDISCSynonym>AVL01-List A Recall 2 Word 6</nciodm:CDISCSynonym>
                    <nciodm:CDISCDefinition>Auditory Verbal Learning Test Version A - List A, Recall 2, Word 6.</nciodm:CDISCDefinition>
                    <nciodm:PreferredTerm>ADNI AVLT - List A Recall 2 Word 6</nciodm:PreferredTerm>
                </EnumeratedItem>
                <EnumeratedItem CodedValue="AVL01-List A Recall 2 Word 7" nciodm:ExtCodeID="C101919">
                    <nciodm:CDISCSynonym>AVL01-List A Recall 2 Word 7</nciodm:CDISCSynonym>
                    <nciodm:CDISCDefinition>Auditory Verbal Learning Test Version A - List A, Recall 2, Word 7.</nciodm:CDISCDefinition>
                    <nciodm:PreferredTerm>ADNI AVLT - List A Recall 2 Word 7</nciodm:PreferredTerm>
                </EnumeratedItem>
                <EnumeratedItem CodedValue="AVL01-List A Recall 2 Word 8" nciodm:ExtCodeID="C101920">
                    <nciodm:CDISCSynonym>AVL01-List A Recall 2 Word 8</nciodm:CDISCSynonym>
                    <nciodm:CDISCDefinition>Auditory Verbal Learning Test Version A - List A, Recall 2, Word 8.</nciodm:CDISCDefinition>
                    <nciodm:PreferredTerm>ADNI AVLT - List A Recall 2 Word 8</nciodm:PreferredTerm>
                </EnumeratedItem>
                <EnumeratedItem CodedValue="AVL01-List A Recall 2 Word 9" nciodm:ExtCodeID="C101921">
                    <nciodm:CDISCSynonym>AVL01-List A Recall 2 Word 9</nciodm:CDISCSynonym>
                    <nciodm:CDISCDefinition>Auditory Verbal Learning Test Version A - List A, Recall 2, Word 9.</nciodm:CDISCDefinition>
                    <nciodm:PreferredTerm>ADNI AVLT - List A Recall 2 Word 9</nciodm:PreferredTerm>
                </EnumeratedItem>
                <EnumeratedItem CodedValue="AVL01-List A Recall 3 Total" nciodm:ExtCodeID="C101945">
                    <nciodm:CDISCSynonym>AVL01-List A Recall 3 Total</nciodm:CDISCSynonym>
                    <nciodm:CDISCDefinition>Auditory Verbal Learning Test Version A - The number of words recalled from List A, third attempt.</nciodm:CDISCDefinition>
                    <nciodm:PreferredTerm>ADNI AVLT - List A Recall 3 Total</nciodm:PreferredTerm>
                </EnumeratedItem>
                <EnumeratedItem CodedValue="AVL01-List A Recall 3 Word 1" nciodm:ExtCodeID="C101930">
                    <nciodm:CDISCSynonym>AVL01-List A Recall 3 Word 1</nciodm:CDISCSynonym>
                    <nciodm:CDISCDefinition>Auditory Verbal Learning Test Version A - List A, Recall 3, Word 1.</nciodm:CDISCDefinition>
                    <nciodm:PreferredTerm>ADNI AVLT - List A Recall 3 Word 1</nciodm:PreferredTerm>
                </EnumeratedItem>
                <EnumeratedItem CodedValue="AVL01-List A Recall 3 Word 10" nciodm:ExtCodeID="C101939">
                    <nciodm:CDISCSynonym>AVL01-List A Recall 3 Word 10</nciodm:CDISCSynonym>
                    <nciodm:CDISCDefinition>Auditory Verbal Learning Test Version A - List A, Recall 3, Word 10.</nciodm:CDISCDefinition>
                    <nciodm:PreferredTerm>ADNI AVLT - List A Recall 3 Word 10</nciodm:PreferredTerm>
                </EnumeratedItem>
                <EnumeratedItem CodedValue="AVL01-List A Recall 3 Word 11" nciodm:ExtCodeID="C101940">
                    <nciodm:CDISCSynonym>AVL01-List A Recall 3 Word 11</nciodm:CDISCSynonym>
                    <nciodm:CDISCDefinition>Auditory Verbal Learning Test Version A - List A, Recall 3, Word 11.</nciodm:CDISCDefinition>
                    <nciodm:PreferredTerm>ADNI AVLT - List A Recall 3 Word 11</nciodm:PreferredTerm>
                </EnumeratedItem>
                <EnumeratedItem CodedValue="AVL01-List A Recall 3 Word 12" nciodm:ExtCodeID="C101941">
                    <nciodm:CDISCSynonym>AVL01-List A Recall 3 Word 12</nciodm:CDISCSynonym>
                    <nciodm:CDISCDefinition>Auditory Verbal Learning Test Version A - List A, Recall 3, Word 12.</nciodm:CDISCDefinition>
                    <nciodm:PreferredTerm>ADNI AVLT - List A Recall 3 Word 12</nciodm:PreferredTerm>
                </EnumeratedItem>
                <EnumeratedItem CodedValue="AVL01-List A Recall 3 Word 13" nciodm:ExtCodeID="C101942">
                    <nciodm:CDISCSynonym>AVL01-List A Recall 3 Word 13</nciodm:CDISCSynonym>
                    <nciodm:CDISCDefinition>Auditory Verbal Learning Test Version A - List A, Recall 3, Word 13.</nciodm:CDISCDefinition>
                    <nciodm:PreferredTerm>ADNI AVLT - List A Recall 3 Word 13</nciodm:PreferredTerm>
                </EnumeratedItem>
                <EnumeratedItem CodedValue="AVL01-List A Recall 3 Word 14" nciodm:ExtCodeID="C101943">
                    <nciodm:CDISCSynonym>AVL01-List A Recall 3 Word 14</nciodm:CDISCSynonym>
                    <nciodm:CDISCDefinition>Auditory Verbal Learning Test Version A - List A, Recall 3, Word 14.</nciodm:CDISCDefinition>
                    <nciodm:PreferredTerm>ADNI AVLT - List A Recall 3 Word 14</nciodm:PreferredTerm>
                </EnumeratedItem>
                <EnumeratedItem CodedValue="AVL01-List A Recall 3 Word 15" nciodm:ExtCodeID="C101944">
                    <nciodm:CDISCSynonym>AVL01-List A Recall 3 Word 15</nciodm:CDISCSynonym>
                    <nciodm:CDISCDefinition>Auditory Verbal Learning Test Version A - List A, Recall 3, Word 15.</nciodm:CDISCDefinition>
                    <nciodm:PreferredTerm>ADNI AVLT - List A Recall 3 Word 15</nciodm:PreferredTerm>
                </EnumeratedItem>
                <EnumeratedItem CodedValue="AVL01-List A Recall 3 Word 2" nciodm:ExtCodeID="C101931">
                    <nciodm:CDISCSynonym>AVL01-List A Recall 3 Word 2</nciodm:CDISCSynonym>
                    <nciodm:CDISCDefinition>Auditory Verbal Learning Test Version A - List A, Recall 3, Word 2.</nciodm:CDISCDefinition>
