<?xml version="1.0" encoding="UTF-8"?>
<!--Produced from SAS data using the SAS Clinical Standards Toolkit-->
<ODM xmlns="http://www.cdisc.org/ns/odm/v1.3" FileOID="ODM.FileOID" CreationDateTime="2022-06-01T14:43:13-04:00" AsOfDateTime="2010-11-04T12:00:22" Description="Test file to demonstrate CST functionality" FileType="Snapshot" Granularity="All" ODMVersion="1.3.1" Originator="SAS Institute" SourceSystem="Clinical Standards Toolkit" SourceSystemVersion="1.5">
    <Study OID="Study.OID">
        <GlobalVariables>
            <StudyName>CST sample study</StudyName>
            <StudyDescription>Clinical Standards Toolkit sample study</StudyDescription>
            <ProtocolName>SASCSTDEMODATA</ProtocolName>
        </GlobalVariables>
        <BasicDefinitions>
            <MeasurementUnit OID="MeasurementUnits.OID.BEAT_MIN" Name="BEAT_MIN">
                <Symbol>
                    <TranslatedText xml:lang="en">beats/minute</TranslatedText>
                    <TranslatedText xml:lang="fr-CA">bat/minute</TranslatedText>
                </Symbol>
                <Alias Context="Testing - New in ODM1.3.1 - Context1" Name="alias1"/>
                <Alias Context="Testing - New in ODM1.3.1 - Context1" Name="alias2"/>
                <Alias Context="Testing - New in ODM1.3.1 - Context2" Name="alias1"/>
            </MeasurementUnit>
            <MeasurementUnit OID="MeasurementUnits.OID.CM" Name="CM">
                <Symbol>
                    <TranslatedText xml:lang="en">CM</TranslatedText>
                    <TranslatedText xml:lang="fr-CA">CM</TranslatedText>
                </Symbol>
            </MeasurementUnit>
            <MeasurementUnit OID="MeasurementUnits.OID.MMHG" Name="MMHG">
                <Symbol>
                    <TranslatedText xml:lang="en">mmHG</TranslatedText>
                    <TranslatedText xml:lang="fr-CA">mmHG</TranslatedText>
                </Symbol>
            </MeasurementUnit>
            <MeasurementUnit OID="MeasurementUnits.OID.YRS" Name="YEARS">
                <Symbol>
                    <TranslatedText xml:lang="de">Jahren</TranslatedText>
                    <TranslatedText xml:lang="en">Years of age</TranslatedText>
                    <TranslatedText xml:lang="fr-CA">Ans</TranslatedText>
                </Symbol>
            </MeasurementUnit>
        </BasicDefinitions>
        <MetaDataVersion OID="MetaDataVersion.OID.1" Name="Original MDV" Description="Original MetaDataVersion for Study Study.OID">
            <Protocol>
                <Description>
                    <TranslatedText xml:lang="en">Protocol description: Clinical Standards Toolkit sample study</TranslatedText>
                    <TranslatedText xml:lang="fr-CA">Description du protocole: etude d'un echantillon Clinical Standards Toolkit</TranslatedText>
                </Description>
                <StudyEventRef Mandatory="Yes" OrderNumber="1" StudyEventOID="StudyEventDefs.OID.1.Screening"/>
                <StudyEventRef Mandatory="Yes" OrderNumber="2" StudyEventOID="StudyEventDefs.OID.2.Randomization"/>
                <StudyEventRef Mandatory="No" OrderNumber="3" StudyEventOID="StudyEventDefs.OID.3.2Weeks"/>
                <StudyEventRef Mandatory="No" OrderNumber="4" StudyEventOID="StudyEventDefs.OID.4.4Weeks"/>
                <StudyEventRef Mandatory="No" OrderNumber="5" StudyEventOID="StudyEventDefs.OID.5.6Weeks"/>
                <StudyEventRef Mandatory="No" OrderNumber="6" StudyEventOID="StudyEventDefs.OID.6.AdverseEvent"/>
                <Alias Context="Testing - New in ODM1.3.1 - Context1" Name="alias1"/>
            </Protocol>
            <StudyEventDef OID="StudyEventDefs.OID.3.2Weeks" Category="Follow-up" Name="2-week Follow-up" Repeating="No" Type="Scheduled">
                <Description>
                    <TranslatedText xml:lang="en">Study Event description</TranslatedText>
                </Description>
                <FormRef FormOID="FormDefs.OID.VS" Mandatory="No"/>
                <Alias Context="Testing - New in ODM1.3.1 - Context1" Name="alias1"/>
            </StudyEventDef>
            <StudyEventDef OID="StudyEventDefs.OID.4.4Weeks" Category="Follow-up" Name="4-week Follow-up" Repeating="No" Type="Scheduled">
                <FormRef FormOID="FormDefs.OID.VS" Mandatory="No"/>
            </StudyEventDef>
            <StudyEventDef OID="StudyEventDefs.OID.5.6Weeks" Category="Follow-up" Name="6-week Follow-up" Repeating="No" Type="Scheduled">
                <FormRef FormOID="FormDefs.OID.LB" Mandatory="No"/>
                <FormRef FormOID="FormDefs.OID.VS" Mandatory="No"/>
            </StudyEventDef>
            <StudyEventDef OID="StudyEventDefs.OID.2.Randomization" Category="Randomization" Name="Randomization" Repeating="No" Type="Scheduled">
                <FormRef FormOID="FormDefs.OID.DM" Mandatory="Yes" OrderNumber="1"/>
                <FormRef FormOID="FormDefs.OID.LB" Mandatory="Yes" OrderNumber="2"/>
                <FormRef FormOID="FormDefs.OID.VS" Mandatory="Yes" OrderNumber="3"/>
            </StudyEventDef>
            <StudyEventDef OID="StudyEventDefs.OID.1.Screening" Category="Screening" Name="Screening" Repeating="No" Type="Scheduled">
                <FormRef FormOID="FormDefs.OID.MH" Mandatory="Yes" OrderNumber="1"/>
            </StudyEventDef>
            <StudyEventDef OID="StudyEventDefs.OID.6.AdverseEvent" Name="Study Event Definition" Repeating="Yes" Type="Common">
                <FormRef FormOID="FormDefs.OID.AE" Mandatory="No"/>
            </StudyEventDef>
            <FormDef OID="FormDefs.OID.DM" Name="Demographics" Repeating="No">
                <Description>
                    <TranslatedText xml:lang="de">Demographie</TranslatedText>
                </Description>
                <ItemGroupRef ItemGroupOID="ItemGroupDefs.OID.DM" Mandatory="Yes" OrderNumber="0" CollectionExceptionConditionOID="ConditionDefs.OID.sample"/>
                <ArchiveLayout OID="FormDefArchLayouts.OID.DM" PdfFileName="dm.pdf" PresentationOID="Presentation.OID"/>
                <Alias Context="Testing - New in ODM1.3.1 - Context1" Name="alias1"/>
            </FormDef>
            <FormDef OID="FormDefs.OID.LB" Name="Laboratory Data" Repeating="Yes">
                <Description>
                    <TranslatedText xml:lang="de">Labordaten</TranslatedText>
                </Description>
                <ItemGroupRef ItemGroupOID="ItemGroupDefs.OID.LB" Mandatory="Yes" OrderNumber="0"/>
                <ArchiveLayout OID="FormDefArchLayouts.OID.LB" PdfFileName="lb.pdf" PresentationOID="Presentation.OID"/>
            </FormDef>
            <FormDef OID="FormDefs.OID.MH" Name="Medical History" Repeating="No">
                <ItemGroupRef ItemGroupOID="ItemGroupDefs.OID.mh.ids" Mandatory="Yes" OrderNumber="0"/>
                <ItemGroupRef ItemGroupOID="ItemGroupDefs.OID.mh.events" Mandatory="Yes" OrderNumber="1"/>
                <ItemGroupRef ItemGroupOID="ItemGroupDefs.OID.mh.dates" Mandatory="Yes" OrderNumber="2"/>
                <ArchiveLayout OID="FormDefArchLayouts.OID.MH" PdfFileName="mh.pdf" PresentationOID="Presentation.OID"/>
            </FormDef>
            <FormDef OID="FormDefs.OID.VS" Name="Vital Signs" Repeating="Yes">
                <ItemGroupRef ItemGroupOID="ItemGroupDefs.OID.VS" Mandatory="Yes" OrderNumber="0"/>
                <ArchiveLayout OID="FormDefArchLayouts.OID.VS" PdfFileName="vs.pdf" PresentationOID="Presentation.OID"/>
            </FormDef>
            <FormDef OID="FormDefs.OID.AE" Name="Form Definition" Repeating="Yes">
                <ItemGroupRef ItemGroupOID="ItemGroupDefs.OID.AE" Mandatory="No"/>
            </FormDef>
            <ItemGroupDef OID="ItemGroupDefs.OID.DM" Name="DM" Repeating="No" IsReferenceData="No" SASDatasetName="DM" Domain="DM" Purpose="Tabulation">
                <ItemRef ItemOID="ItemDef.OID.DM.STUDYID" Mandatory="Yes" OrderNumber="1" KeySequence="1" Role="Identifier"/>
                <ItemRef ItemOID="ItemDef.OID.DM.DOMAIN" Mandatory="Yes" OrderNumber="2" Role="Identifier"/>
                <ItemRef ItemOID="ItemDef.OID.DM.USUBJID" Mandatory="Yes" OrderNumber="3" KeySequence="2" Role="Identifier"/>
                <ItemRef ItemOID="ItemDef.OID.DM.SUBJID" Mandatory="Yes" OrderNumber="4" Role="Topic"/>
                <ItemRef ItemOID="ItemDef.OID.DM.RFSTDTC" Mandatory="No" OrderNumber="5" Role="RecordQualifier"/>
                <ItemRef ItemOID="ItemDef.OID.DM.RFENDTC" Mandatory="No" OrderNumber="6" Role="RecordQualifier"/>
                <ItemRef ItemOID="ItemDef.OID.DM.SITEID" Mandatory="Yes" OrderNumber="7" Role="RecordQualifier"/>
                <ItemRef ItemOID="ItemDef.OID.DM.INVID" Mandatory="No" OrderNumber="8" Role="RecordQualifier"/>
                <ItemRef ItemOID="ItemDef.OID.DM.INVNAM" Mandatory="No" OrderNumber="9" Role="SynonymQualifier"/>
                <ItemRef ItemOID="ItemDef.OID.DM.BRTHDTC" Mandatory="No" OrderNumber="10" Role="RecordQualifier"/>
                <ItemRef ItemOID="ItemDef.OID.DM.AGE" Mandatory="No" OrderNumber="11" Role="RecordQualifier"/>
                <ItemRef ItemOID="ItemDef.OID.DM.AGEU" Mandatory="No" OrderNumber="12" Role="VariableQualifier"/>
                <ItemRef ItemOID="ItemDef.OID.DM.SEX" Mandatory="Yes" OrderNumber="13" Role="RecordQualifier"/>
                <ItemRef ItemOID="ItemDef.OID.DM.RACE" Mandatory="No" OrderNumber="14" Role="RecordQualifier"/>
                <ItemRef ItemOID="ItemDef.OID.DM.ETHNIC" Mandatory="No" OrderNumber="15" Role="RecordQualifier"/>
                <ItemRef ItemOID="ItemDef.OID.DM.ARMCD" Mandatory="Yes" OrderNumber="16" Role="RecordQualifier"/>
                <ItemRef ItemOID="ItemDef.OID.DM.ARM" Mandatory="Yes" OrderNumber="17" Role="SynonymQualifier"/>
                <ItemRef ItemOID="ItemDef.OID.DM.COUNTRY" Mandatory="Yes" OrderNumber="18" Role="RecordQualifier"/>
                <ItemRef ItemOID="ItemDef.OID.DM.DMDTC" Mandatory="No" OrderNumber="19" Role="Timing"/>
                <ItemRef ItemOID="ItemDef.OID.DM.DMDY" Mandatory="No" OrderNumber="20" Role="Timing"/>
            </ItemGroupDef>
            <ItemGroupDef OID="ItemGroupDefs.OID.AE" Name="Adverse Events" Repeating="Yes" SASDatasetName="AE" Domain="AE" Comment="Some adverse events from this trial">
                <ItemRef ItemOID="ID.TAREA" Mandatory="No" OrderNumber="1"/>
                <ItemRef ItemOID="ID.PNO" Mandatory="No" OrderNumber="2"/>
                <ItemRef ItemOID="ID.SCTRY" Mandatory="No" OrderNumber="3"/>
                <ItemRef ItemOID="ID.F_STATUS" Mandatory="No" OrderNumber="4"/>
                <ItemRef ItemOID="ID.LINE_NO" Mandatory="No" OrderNumber="5"/>
                <ItemRef ItemOID="ID.AETERM" Mandatory="No" OrderNumber="6"/>
                <ItemRef ItemOID="ID.AESTMON" Mandatory="No" OrderNumber="7"/>
                <ItemRef ItemOID="ID.AESTDAY" Mandatory="No" OrderNumber="8"/>
                <ItemRef ItemOID="ID.AESTYR" Mandatory="No" OrderNumber="9"/>
                <ItemRef ItemOID="ID.AESTDT" Mandatory="No" OrderNumber="10"/>
                <ItemRef ItemOID="ID.AEENMON" Mandatory="No" OrderNumber="11"/>
                <ItemRef ItemOID="ID.AEENDAY" Mandatory="No" OrderNumber="12"/>
                <ItemRef ItemOID="ID.AEENYR" Mandatory="No" OrderNumber="13"/>
                <ItemRef ItemOID="ID.AEENDT" Mandatory="No" OrderNumber="14"/>
                <ItemRef ItemOID="ID.AESEV" Mandatory="No" OrderNumber="15"/>
                <ItemRef ItemOID="ID.AEREL" Mandatory="No" OrderNumber="16"/>
                <ItemRef ItemOID="ID.AEOUT" Mandatory="No" OrderNumber="17"/>
                <ItemRef ItemOID="ID.AEACTTRT" Mandatory="No" OrderNumber="18"/>
                <ItemRef ItemOID="ID.AECONTRT" Mandatory="No" OrderNumber="19"/>
            </ItemGroupDef>
            <ItemGroupDef OID="ItemGroupDefs.OID.LB" Name="LB" Repeating="Yes" IsReferenceData="No" SASDatasetName="LB" Domain="LB" Purpose="Tabulation">
                <ItemRef ItemOID="ItemDef.OID.LB.STUDYID" Mandatory="Yes" OrderNumber="1" KeySequence="1" Role="Identifier"/>
                <ItemRef ItemOID="ItemDef.OID.LB.DOMAIN" Mandatory="Yes" OrderNumber="2" Role="Identifier"/>
                <ItemRef ItemOID="ItemDef.OID.LB.USUBJID" Mandatory="Yes" OrderNumber="3" KeySequence="2" Role="Identifier"/>
                <ItemRef ItemOID="ItemDef.OID.LB.LBSEQ" Mandatory="Yes" OrderNumber="4" Role="Identifier"/>
                <ItemRef ItemOID="ItemDef.OID.LB.LBGRPID" Mandatory="No" OrderNumber="5" Role="Identifier"/>
                <ItemRef ItemOID="ItemDef.OID.LB.LBREFID" Mandatory="No" OrderNumber="6" Role="Identifier"/>
                <ItemRef ItemOID="ItemDef.OID.LB.LBSPID" Mandatory="No" OrderNumber="7" Role="Identifier"/>
                <ItemRef ItemOID="ItemDef.OID.LB.LBTESTCD" Mandatory="Yes" OrderNumber="8" KeySequence="3" Role="Topic"/>
                <ItemRef ItemOID="ItemDef.OID.LB.LBTEST" Mandatory="Yes" OrderNumber="9" Role="SynonymQualifier"/>
                <ItemRef ItemOID="ItemDef.OID.LB.LBCAT" Mandatory="No" OrderNumber="10" Role="GroupingQualifier"/>
                <ItemRef ItemOID="ItemDef.OID.LB.LBSCAT" Mandatory="No" OrderNumber="11" Role="GroupingQualifier"/>
                <ItemRef ItemOID="ItemDef.OID.LB.LBORRES" Mandatory="No" OrderNumber="12" Role="ResultQualifier"/>
                <ItemRef ItemOID="ItemDef.OID.LB.LBORRESU" Mandatory="No" OrderNumber="13" Role="VariableQualifier"/>
                <ItemRef ItemOID="ItemDef.OID.LB.LBORNRLO" Mandatory="No" OrderNumber="14" Role="VariableQualifier"/>
                <ItemRef ItemOID="ItemDef.OID.LB.LBORNRHI" Mandatory="No" OrderNumber="15" Role="VariableQualifier"/>
                <ItemRef ItemOID="ItemDef.OID.LB.LBSTRESC" Mandatory="No" OrderNumber="16" Role="ResultQualifier"/>
                <ItemRef ItemOID="ItemDef.OID.LB.LBSTRESN" Mandatory="No" OrderNumber="17" Role="ResultQualifier"/>
                <ItemRef ItemOID="ItemDef.OID.LB.LBSTRESU" Mandatory="No" OrderNumber="18" Role="VariableQualifier"/>
                <ItemRef ItemOID="ItemDef.OID.LB.LBSTNRLO" Mandatory="No" OrderNumber="19" Role="VariableQualifier"/>
                <ItemRef ItemOID="ItemDef.OID.LB.LBSTNRHI" Mandatory="No" OrderNumber="20" Role="VariableQualifier"/>
                <ItemRef ItemOID="ItemDef.OID.LB.LBSTNRC" Mandatory="No" OrderNumber="21" Role="VariableQualifier"/>
                <ItemRef ItemOID="ItemDef.OID.LB.LBNRIND" Mandatory="No" OrderNumber="22" Role="VariableQualifier"/>
                <ItemRef ItemOID="ItemDef.OID.LB.LBSTAT" Mandatory="No" OrderNumber="23" Role="RecordQualifier"/>
                <ItemRef ItemOID="ItemDef.OID.LB.LBREASND" Mandatory="No" OrderNumber="24" Role="RecordQualifier"/>
                <ItemRef ItemOID="ItemDef.OID.LB.LBNAM" Mandatory="No" OrderNumber="25" Role="RecordQualifier"/>
                <ItemRef ItemOID="ItemDef.OID.LB.LBLOINC" Mandatory="No" OrderNumber="26" Role="SynonymQualifier"/>
                <ItemRef ItemOID="ItemDef.OID.LB.LBSPEC" Mandatory="No" OrderNumber="27" KeySequence="4" Role="RecordQualifier"/>
                <ItemRef ItemOID="ItemDef.OID.LB.LBSPCCND" Mandatory="No" OrderNumber="28" Role="RecordQualifier"/>
                <ItemRef ItemOID="ItemDef.OID.LB.LBMETHOD" Mandatory="No" OrderNumber="29" Role="RecordQualifier"/>
                <ItemRef ItemOID="ItemDef.OID.LB.LBBLFL" Mandatory="No" OrderNumber="30" Role="RecordQualifier"/>
                <ItemRef ItemOID="ItemDef.OID.LB.LBFAST" Mandatory="No" OrderNumber="31" Role="RecordQualifier"/>
                <ItemRef ItemOID="ItemDef.OID.LB.LBDRVFL" Mandatory="No" OrderNumber="32" Role="RecordQualifier"/>
                <ItemRef ItemOID="ItemDef.OID.LB.LBTOX" Mandatory="No" OrderNumber="33" Role="VariableQualifier"/>
                <ItemRef ItemOID="ItemDef.OID.LB.LBTOXGR" Mandatory="No" OrderNumber="34" Role="VariableQualifier"/>
                <ItemRef ItemOID="ItemDef.OID.LB.VISITNUM" Mandatory="No" OrderNumber="35" KeySequence="5" Role="Timing"/>
                <ItemRef ItemOID="ItemDef.OID.LB.VISIT" Mandatory="No" OrderNumber="36" Role="Timing"/>
                <ItemRef ItemOID="ItemDef.OID.LB.VISITDY" Mandatory="No" OrderNumber="37" Role="Timing"/>
                <ItemRef ItemOID="ItemDef.OID.LB.LBDTC" Mandatory="No" OrderNumber="38" Role="Timing"/>
                <ItemRef ItemOID="ItemDef.OID.LB.LBENDTC" Mandatory="No" OrderNumber="39" Role="Timing"/>
                <ItemRef ItemOID="ItemDef.OID.LB.LBDY" Mandatory="No" OrderNumber="40" Role="Timing"/>
                <ItemRef ItemOID="ItemDef.OID.LB.LBTPT" Mandatory="No" OrderNumber="41" Role="Timing"/>
                <ItemRef ItemOID="ItemDef.OID.LB.LBTPTNUM" Mandatory="No" OrderNumber="42" KeySequence="7" Role="Timing"/>
                <ItemRef ItemOID="ItemDef.OID.LB.LBELTM" Mandatory="No" OrderNumber="43" Role="Timing"/>
                <ItemRef ItemOID="ItemDef.OID.LB.LBTPTREF" Mandatory="No" OrderNumber="44" KeySequence="6" Role="Timing"/>
                <ItemRef ItemOID="ItemDef.OID.LB.LBRFTDTC" Mandatory="No" OrderNumber="45" Role="Timing"/>
            </ItemGroupDef>
            <ItemGroupDef OID="ItemGroupDefs.OID.labnormalranges" Name="Lab normal ranges" Repeating="No" IsReferenceData="Yes" SASDatasetName="labnorm">
                <Description>
                    <TranslatedText xml:lang="de">Zentrallabor Normbereich</TranslatedText>
                    <TranslatedText xml:lang="en">Central laboratory normal ranges</TranslatedText>
                    <TranslatedText xml:lang="fr-CA">gammes de laboratoire centrale normale</TranslatedText>
                </Description>
                <ItemRef ItemOID="ItemDef.OID.lnr.studyid" Mandatory="No" OrderNumber="1"/>
                <ItemRef ItemOID="ItemDef.OID.lnr.siteid" Mandatory="No" OrderNumber="2"/>
                <ItemRef ItemOID="ItemDef.OID.lnr.lbnam" Mandatory="No" OrderNumber="3"/>
                <ItemRef ItemOID="ItemDef.OID.lnr.lbtestcd" Mandatory="Yes" OrderNumber="4"/>
                <ItemRef ItemOID="ItemDef.OID.lnr.sex" Mandatory="No" OrderNumber="5"/>
                <ItemRef ItemOID="ItemDef.OID.lnr.lowage" Mandatory="No" OrderNumber="6"/>
                <ItemRef ItemOID="ItemDef.OID.lnr.highage" Mandatory="No" OrderNumber="7"/>
                <ItemRef ItemOID="ItemDef.OID.lnr.lbornrlo" Mandatory="Yes" OrderNumber="8"/>
                <ItemRef ItemOID="ItemDef.OID.lnr.lbornrhi" Mandatory="Yes" OrderNumber="9"/>
                <ItemRef ItemOID="ItemDef.OID.lnr.lborresu" Mandatory="No" OrderNumber="10"/>
                <ItemRef ItemOID="ItemDef.OID.lnr.cslow" Mandatory="No" OrderNumber="11"/>
                <ItemRef ItemOID="ItemDef.OID.lnr.cshigh" Mandatory="No" OrderNumber="12"/>
                <Alias Context="Testing" Name="lnrs"/>
            </ItemGroupDef>
            <ItemGroupDef OID="ItemGroupDefs.OID.mh.events" Name="Medical History Event Columns" Repeating="Yes" IsReferenceData="No" SASDatasetName="mh_evnt" Domain="MH" Purpose="Tabulation">
                <ItemRef ItemOID="ItemDef.OID.MH.MHSEQ" Mandatory="Yes" OrderNumber="4" Role="Identifier"/>
                <ItemRef ItemOID="ItemDef.OID.MH.MHGRPID" Mandatory="No" OrderNumber="5" Role="Identifier"/>
                <ItemRef ItemOID="ItemDef.OID.MH.MHREFID" Mandatory="No" OrderNumber="6" Role="Identifier"/>
                <ItemRef ItemOID="ItemDef.OID.MH.MHSPID" Mandatory="No" OrderNumber="7" Role="Identifier"/>
                <ItemRef ItemOID="ItemDef.OID.MH.MHTERM" Mandatory="Yes" OrderNumber="8" Role="Topic"/>
                <ItemRef ItemOID="ItemDef.OID.MH.MHMODIFY" Mandatory="No" OrderNumber="9" Role="SynonymQualifier"/>
                <ItemRef ItemOID="ItemDef.OID.MH.MHDECOD" Mandatory="No" OrderNumber="10" KeySequence="3" Role="SynonymQualifier"/>
                <ItemRef ItemOID="ItemDef.OID.MH.MHCAT" Mandatory="No" OrderNumber="11" Role="GroupingQualifier"/>
                <ItemRef ItemOID="ItemDef.OID.MH.MHSCAT" Mandatory="No" OrderNumber="12" Role="GroupingQualifier"/>
                <ItemRef ItemOID="ItemDef.OID.MH.MHPRESP" Mandatory="No" OrderNumber="13" Role="RecordQualifier"/>
                <ItemRef ItemOID="ItemDef.OID.MH.MHOCCUR" Mandatory="No" OrderNumber="14" Role="RecordQualifier"/>
                <ItemRef ItemOID="ItemDef.OID.MH.MHSTAT" Mandatory="No" OrderNumber="15" Role="RecordQualifier"/>
                <ItemRef ItemOID="ItemDef.OID.MH.MHREASND" Mandatory="No" OrderNumber="16" Role="RecordQualifier"/>
                <ItemRef ItemOID="ItemDef.OID.MH.MHBODSYS" Mandatory="No" OrderNumber="17" Role="RecordQualifier"/>
            </ItemGroupDef>
            <ItemGroupDef OID="ItemGroupDefs.OID.mh.ids" Name="Medical History Identifier Columns" Repeating="No" IsReferenceData="No" SASDatasetName="mh_id" Domain="MH" Purpose="Tabulation">
                <ItemRef ItemOID="ItemDef.OID.MH.STUDYID" Mandatory="Yes" OrderNumber="1" KeySequence="1" Role="Identifier"/>
                <ItemRef ItemOID="ItemDef.OID.MH.DOMAIN" Mandatory="Yes" OrderNumber="2" Role="Identifier"/>
                <ItemRef ItemOID="ItemDef.OID.MH.USUBJID" Mandatory="Yes" OrderNumber="3" KeySequence="2" Role="Identifier"/>
            </ItemGroupDef>
            <ItemGroupDef OID="ItemGroupDefs.OID.mh.dates" Name="Medical History Timing Columns" Repeating="Yes" IsReferenceData="No" SASDatasetName="mh_dat" Domain="MH" Purpose="Tabulation">
                <ItemRef ItemOID="ItemDef.OID.MH.MHDTC" Mandatory="No" OrderNumber="18" Role="Timing"/>
                <ItemRef ItemOID="ItemDef.OID.MH.MHSTDTC" Mandatory="No" OrderNumber="19" Role="Timing"/>
                <ItemRef ItemOID="ItemDef.OID.MH.MHENDTC" Mandatory="No" OrderNumber="20" Role="Timing"/>
                <ItemRef ItemOID="ItemDef.OID.MH.MHDY" Mandatory="No" OrderNumber="21" Role="Timing"/>
                <ItemRef ItemOID="ItemDef.OID.MH.MHENRF" Mandatory="No" OrderNumber="22" Role="Timing"/>
                <ItemRef ItemOID="ItemDef.OID.MH.MHENRTPT" Mandatory="No" OrderNumber="23" Role="Timing"/>
                <ItemRef ItemOID="ItemDef.OID.MH.MHENTPT" Mandatory="No" OrderNumber="24" Role="Timing"/>
            </ItemGroupDef>
            <ItemGroupDef OID="ItemGroupDefs.OID.VS" Name="VS" Repeating="Yes" IsReferenceData="No" SASDatasetName="VS" Domain="VS" Purpose="Tabulation">
                <ItemRef ItemOID="ItemDef.OID.VS.STUDYID" Mandatory="Yes" OrderNumber="1" KeySequence="1" Role="Identifier"/>
                <ItemRef ItemOID="ItemDef.OID.VS.DOMAIN" Mandatory="Yes" OrderNumber="2" Role="Identifier"/>
                <ItemRef ItemOID="ItemDef.OID.VS.USUBJID" Mandatory="Yes" OrderNumber="3" KeySequence="2" Role="Identifier"/>
                <ItemRef ItemOID="ItemDef.OID.VS.VSSEQ" Mandatory="Yes" OrderNumber="4" Role="Identifier"/>
                <ItemRef ItemOID="ItemDef.OID.VS.VSGRPID" Mandatory="No" OrderNumber="5" Role="Identifier"/>
                <ItemRef ItemOID="ItemDef.OID.VS.VSSPID" Mandatory="No" OrderNumber="6" Role="Identifier"/>
                <ItemRef ItemOID="ItemDef.OID.VS.VSTESTCD" Mandatory="Yes" OrderNumber="7" KeySequence="3" Role="Topic"/>
                <ItemRef ItemOID="ItemDef.OID.VS.VSTEST" Mandatory="Yes" OrderNumber="8" Role="SynonymQualifier"/>
                <ItemRef ItemOID="ItemDef.OID.VS.VSCAT" Mandatory="No" OrderNumber="9" Role="GroupingQualifier"/>
                <ItemRef ItemOID="ItemDef.OID.VS.VSSCAT" Mandatory="No" OrderNumber="10" Role="GroupingQualifier"/>
                <ItemRef ItemOID="ItemDef.OID.VS.VSPOS" Mandatory="No" OrderNumber="11" Role="RecordQualifier"/>
                <ItemRef ItemOID="ItemDef.OID.VS.VSORRES" Mandatory="No" OrderNumber="12" Role="ResultQualifier"/>
                <ItemRef ItemOID="ItemDef.OID.VS.VSORRESU" Mandatory="No" OrderNumber="13" Role="VariableQualifier"/>
                <ItemRef ItemOID="ItemDef.OID.VS.VSSTRESC" Mandatory="No" OrderNumber="14" Role="ResultQualifier"/>
                <ItemRef ItemOID="ItemDef.OID.VS.VSSTRESN" Mandatory="No" OrderNumber="15" Role="ResultQualifier"/>
                <ItemRef ItemOID="ItemDef.OID.VS.VSSTRESU" Mandatory="No" OrderNumber="16" Role="VariableQualifier"/>
                <ItemRef ItemOID="ItemDef.OID.VS.VSSTAT" Mandatory="No" OrderNumber="17" Role="RecordQualifier"/>
                <ItemRef ItemOID="ItemDef.OID.VS.VSREASND" Mandatory="No" OrderNumber="18" Role="RecordQualifier"/>
                <ItemRef ItemOID="ItemDef.OID.VS.VSLOC" Mandatory="No" OrderNumber="19" Role="RecordQualifier"/>
                <ItemRef ItemOID="ItemDef.OID.VS.VSBLFL" Mandatory="No" OrderNumber="20" Role="RecordQualifier"/>
                <ItemRef ItemOID="ItemDef.OID.VS.VSDRVFL" Mandatory="No" OrderNumber="21" Role="RecordQualifier"/>
                <ItemRef ItemOID="ItemDef.OID.VS.VISITNUM" Mandatory="No" OrderNumber="22" KeySequence="4" Role="Timing"/>
                <ItemRef ItemOID="ItemDef.OID.VS.VISIT" Mandatory="No" OrderNumber="23" Role="Timing"/>
                <ItemRef ItemOID="ItemDef.OID.VS.VISITDY" Mandatory="No" OrderNumber="24" Role="Timing"/>
                <ItemRef ItemOID="ItemDef.OID.VS.VSDTC" Mandatory="No" OrderNumber="25" Role="Timing"/>
                <ItemRef ItemOID="ItemDef.OID.VS.VSDY" Mandatory="No" OrderNumber="26" Role="Timing"/>
                <ItemRef ItemOID="ItemDef.OID.VS.VSTPT" Mandatory="No" OrderNumber="27" Role="Timing"/>
                <ItemRef ItemOID="ItemDef.OID.VS.VSTPTNUM" Mandatory="No" OrderNumber="28" KeySequence="6" Role="Timing"/>
                <ItemRef ItemOID="ItemDef.OID.VS.VSELTM" Mandatory="No" OrderNumber="29" Role="Timing"/>
                <ItemRef ItemOID="ItemDef.OID.VS.VSTPTREF" Mandatory="No" OrderNumber="30" KeySequence="5" Role="Timing"/>
                <ItemRef ItemOID="ItemDef.OID.VS.VSRFTDTC" Mandatory="No" OrderNumber="31" Role="Timing"/>
            </ItemGroupDef>
            <ItemDef OID="ItemDef.OID.DM.AGE" Name="AGE" DataType="integer" Length="8" SASFieldName="AGE" Comment="Age expressed in AGEU. May be derived from RFSTDTC and BRTHDTC, but BRTHDTC may not be available in all cases (due to subject privacy concerns).">
                <RangeCheck Comparator="GT" SoftHard="Hard">
                    <CheckValue>70</CheckValue>
                    <MeasurementUnitRef MeasurementUnitOID="MeasurementUnits.OID.YRS"/>
                    <ErrorMessage>
                        <TranslatedText xml:lang="de">Das maximale Alter fur die Teilnahme ist 70 Jahre</TranslatedText>
                        <TranslatedText xml:lang="en">The maximum age for participation is 70 years</TranslatedText>
                        <TranslatedText xml:lang="fr-CA">L'age maximum de participation est de 70 ans</TranslatedText>
                    </ErrorMessage>
                </RangeCheck>
                <RangeCheck Comparator="LT" SoftHard="Hard">
                    <CheckValue>18</CheckValue>
                    <MeasurementUnitRef MeasurementUnitOID="MeasurementUnits.OID.YRS"/>
                    <ErrorMessage>
                        <TranslatedText xml:lang="de">Das Mindestalter fur die Teilnahme betragt 18 Jahre</TranslatedText>
                        <TranslatedText xml:lang="en">The minimum age for participation is 18 years</TranslatedText>
                        <TranslatedText xml:lang="fr-CA">L'age minimum pour participer est de 18 ans</TranslatedText>
                    </ErrorMessage>
                </RangeCheck>
            </ItemDef>
            <ItemDef OID="ItemDef.OID.DM.AGEU" Name="AGEU" DataType="string" Length="10" SASFieldName="AGEU" Comment="Units associated with AGE.">
                <CodeListRef CodeListOID="CodeLists.OID.AGEU"/>
            </ItemDef>
            <ItemDef OID="ItemDef.OID.DM.ARM" Name="ARM" DataType="string" Length="40" SASFieldName="ARM" Comment="Name of the Arm to which the subject was assigned."/>
            <ItemDef OID="ItemDef.OID.DM.ARMCD" Name="ARMCD" DataType="string" Length="20" SASFieldName="ARMCD" Comment="ARMCD is limited to 20 characters and does not have special character restrictions. The maximum length of ARMCD is longer than for other 'short' variables to accommodate the kind of values that are likely to be needed for crossover trials. For example, if ARMCD values for a seven-period crossover were constructed using two-character abbreviations for each treatment and separating hyphens, the length of ARMCD values would be 20."/>
            <ItemDef OID="ItemDef.OID.DM.BRTHDTC" Name="BRTHDTC" DataType="string" Length="64" SASFieldName="BRTHDTC" Comment="Date/time of birth of the subject."/>
            <ItemDef OID="ItemDef.OID.DM.COUNTRY" Name="COUNTRY" DataType="string" Length="3" SASFieldName="COUNTRY" Comment="Country of the investigational site in which the subject participated in the trial.">
                <CodeListRef CodeListOID="CodeLists.OID.COUNTRY"/>
            </ItemDef>
            <ItemDef OID="ItemDef.OID.DM.DMDTC" Name="DMDTC" DataType="string" Length="64" SASFieldName="DMDTC" Comment="Date/time of demographic data collection."/>
            <ItemDef OID="ItemDef.OID.DM.DMDY" Name="DMDY" DataType="integer" Length="8" SASFieldName="DMDY" Comment="Study day of collection measured as integer days."/>
            <ItemDef OID="ItemDef.OID.DM.DOMAIN" Name="DOMAIN" DataType="string" Length="8" SASFieldName="DOMAIN" Comment="Two-character abbreviation for the domain."/>
            <ItemDef OID="ItemDef.OID.DM.ETHNIC" Name="ETHNIC" DataType="string" Length="40" SASFieldName="ETHNIC" Comment="The ethnicity of the subject. Sponsors should refer to 'Collection of Race and Ethnicity Data in Clinical Trials' (FDA, September 2005) for guidance regarding the collection of ethnicity (http://www.fda.gov/cder/guidance/5656fnl.htm).">
                <CodeListRef CodeListOID="CodeLists.OID.ETHNIC"/>
            </ItemDef>
            <ItemDef OID="ItemDef.OID.DM.INVID" Name="INVID" DataType="string" Length="40" SASFieldName="INVID" Comment="An identifier to describe the Investigator for the study. May be used in addition to SITEID. Not needed if SITEID is equivalent to INVID."/>
            <ItemDef OID="ItemDef.OID.DM.INVNAM" Name="INVNAM" DataType="string" Length="40" SASFieldName="INVNAM" Comment="Name of the investigator for a site."/>
            <ItemDef OID="ID.TAREA" Name="Therapeutic Area" DataType="text" Length="4" SASFieldName="TAREA">
                <CodeListRef CodeListOID="CL.$TAREAF"/>
            </ItemDef>
            <ItemDef OID="ID.PNO" Name="Protocol Number" DataType="text" Length="15" SASFieldName="PNO"/>
            <ItemDef OID="ID.SCTRY" Name="Country" DataType="text" Length="4" SASFieldName="SCTRY">
                <CodeListRef CodeListOID="CL.$SCTRYF"/>
            </ItemDef>
            <ItemDef OID="ID.F_STATUS" Name="Record status, 5 levels, internal use" DataType="text" Length="1" SASFieldName="F_STATUS">
                <CodeListRef CodeListOID="CL.$F_STATU"/>
            </ItemDef>
            <ItemDef OID="ID.LINE_NO" Name="Line Number" DataType="integer" Length="2" SASFieldName="LINE_NO"/>
            <ItemDef OID="ID.AETERM" Name="Conmed Indication" DataType="text" Length="100" SASFieldName="AETERM"/>
            <ItemDef OID="ID.AESTMON" Name="Start Month - Enter Two Digits 01-12" DataType="integer" Length="2" SASFieldName="AESTMON"/>
            <ItemDef OID="ID.AESTDAY" Name="Start Day - Enter Two Digits 01-31" DataType="integer" Length="2" SASFieldName="AESTDAY"/>
            <ItemDef OID="ID.AESTYR" Name="Start Year - Enter Four Digit Year" DataType="integer" Length="4" SASFieldName="AESTYR"/>
            <ItemDef OID="ID.AESTDT" Name="Derived Start Date" DataType="date" SASFieldName="AESTDT"/>
            <ItemDef OID="ID.AEENMON" Name="Stop Month - Enter Two Digits 01-12" DataType="integer" Length="2" SASFieldName="AEENMON"/>
            <ItemDef OID="ID.AEENDAY" Name="Stop Day - Enter Two Digits 01-31" DataType="integer" Length="2" SASFieldName="AEENDAY"/>
            <ItemDef OID="ID.AEENYR" Name="Stop Year - Enter Four Digit Year" DataType="integer" Length="4" SASFieldName="AEENYR"/>
            <ItemDef OID="ID.AEENDT" Name="Derived Stop Date" DataType="date" SASFieldName="AEENDT"/>
            <ItemDef OID="ID.AESEV" Name="Severity" DataType="text" Length="1" SASFieldName="AESEV">
                <CodeListRef CodeListOID="CL.$AESEV"/>
            </ItemDef>
            <ItemDef OID="ID.AEREL" Name="Relationship to study drug" DataType="text" Length="1" SASFieldName="AEREL">
                <CodeListRef CodeListOID="CL.$AEREL"/>
            </ItemDef>
            <ItemDef OID="ID.AEOUT" Name="Outcome" DataType="text" Length="1" SASFieldName="AEOUT">
                <CodeListRef CodeListOID="CL.$AEOUT"/>
            </ItemDef>
            <ItemDef OID="ID.AEACTTRT" Name="Actions taken re study drug" DataType="text" Length="1" SASFieldName="AEACTTRT">
                <CodeListRef CodeListOID="CL.$AEACTTR"/>
            </ItemDef>
            <ItemDef OID="ID.AECONTRT" Name="Actions taken, other" DataType="text" Length="1" SASFieldName="AECONTRT">
                <CodeListRef CodeListOID="CL.$AECONTR"/>
            </ItemDef>
            <ItemDef OID="ItemDef.OID.LB.DOMAIN" Name="DOMAIN" DataType="string" Length="8" SASFieldName="DOMAIN" Comment="Two-character abbreviation for the domain."/>
            <ItemDef OID="ItemDef.OID.LB.LBBLFL" Name="LBBLFL" DataType="string" Length="2" SASFieldName="LBBLFL" Comment="Indicator used to identify a baseline value. The value should be 'Y' or null.">
                <CodeListRef CodeListOID="CodeLists.OID.NY"/>
            </ItemDef>
            <ItemDef OID="ItemDef.OID.LB.LBCAT" Name="LBCAT" DataType="string" Length="40" SASFieldName="LBCAT" Comment="Used to define a category of related records across subjects. Examples: such as HEMATOLOGY, URINALYSIS, CHEMISTRY."/>
            <ItemDef OID="ItemDef.OID.LB.LBDRVFL" Name="LBDRVFL" DataType="string" Length="2" SASFieldName="LBDRVFL" Comment="Used to indicate a derived record. The value should be Y or null. Records that represent the average of other records, or do not come from the CRF, or are not as originally received or collected are examples of records that might be derived for the submission datasets. If LBDRVFL=Y, then LBORRES may be null, with LBSTRESC, and (if numeric) LBSTRESN having the derived value.">
                <CodeListRef CodeListOID="CodeLists.OID.NY"/>
            </ItemDef>
            <ItemDef OID="ItemDef.OID.LB.LBDTC" Name="LBDTC" DataType="string" Length="64" SASFieldName="LBDTC"/>
            <ItemDef OID="ItemDef.OID.LB.LBDY" Name="LBDY" DataType="integer" Length="8" SASFieldName="LBDY" Comment="1. Study day of specimen collection, measured as integer days.  2. Algorithm for calculations must be relative to the sponsor-defined RFSTDTC variable in Demographics. This formula should be consistent across the submission."/>
            <ItemDef OID="ItemDef.OID.LB.LBELTM" Name="LBELTM" DataType="string" Length="64" SASFieldName="LBELTM" Comment="Planned Elapsed time (in ISO 8601) relative to a planned fixed reference (LBTPTREF). This variable is useful where there are repetitive measures. Not a clock time or a date time variable. Represented as an ISO 8601 duration. Examples: '-PT15M' to represent the period of 15 minutes prior to the reference point indicated by LBTPTREF, or 'PT8H' to represent the period of 8 hours after the reference point indicated by LBTPTREF."/>
            <ItemDef OID="ItemDef.OID.LB.LBENDTC" Name="LBENDTC" DataType="string" Length="64" SASFieldName="LBENDTC"/>
            <ItemDef OID="ItemDef.OID.LB.LBFAST" Name="LBFAST" DataType="string" Length="2" SASFieldName="LBFAST" Comment="Indicator used to identify fasting status such as Y, N, U, or null if not relevant.">
                <CodeListRef CodeListOID="CodeLists.OID.NY"/>
            </ItemDef>
            <ItemDef OID="ItemDef.OID.LB.LBGRPID" Name="LBGRPID" DataType="string" Length="40" SASFieldName="LBGRPID" Comment="Used to tie together a block of related records in a single domain for a subject."/>
            <ItemDef OID="ItemDef.OID.LB.LBLOINC" Name="LBLOINC" DataType="string" Length="200" SASFieldName="LBLOINC" Comment="1. Dictionary-derived LOINC Code for LBTEST. 2. The sponsor is expected to provide the dictionary name and version used to map the terms utilizing the define.xml external codelist attributes"/>
            <ItemDef OID="ItemDef.OID.LB.LBMETHOD" Name="LBMETHOD" DataType="string" Length="80" SASFieldName="LBMETHOD" Comment="Method of the test or examination. Examples: EIA (Enzyme Immunoassay), ELECTROPHORESIS, DIPSTICK"/>
            <ItemDef OID="ItemDef.OID.LB.LBNAM" Name="LBNAM" DataType="string" Length="40" SASFieldName="LBNAM" Comment="The name or identifier of the laboratory that performed the test."/>
            <ItemDef OID="ItemDef.OID.LB.LBNRIND" Name="LBNRIND" DataType="string" Length="20" SASFieldName="LBNRIND" Comment="1. Indicates where the value falls with respect to reference range defined by LBORNRLO and LBORNRHI, LBSTNRLO and LBSTNRHI, or by LBSTNRC. Examples: NORMAL, ABNORMAL, HIGH, LOW. 2. Sponsors should specify in the study metadata (Comments column in the define.xml) whether LBNRIND refers to the original or standard reference ranges and results. 3. Should not be used to indicate clinical significance."/>
            <ItemDef OID="ItemDef.OID.LB.LBORNRHI" Name="LBORNRHI" DataType="string" Length="40" SASFieldName="LBORNRHI" Comment="Upper end of reference range for continuous measurements in original units. Should be populated only for continuous results."/>
            <ItemDef OID="ItemDef.OID.LB.LBORNRLO" Name="LBORNRLO" DataType="string" Length="40" SASFieldName="LBORNRLO" Comment="Lower end of reference range for continuous measurements in original units. Should be populated only for continuous results."/>
            <ItemDef OID="ItemDef.OID.LB.LBORRES" Name="LBORRES" DataType="string" Length="200" SASFieldName="LBORRES" Comment="Result of the measurement or finding as originally received or collected."/>
            <ItemDef OID="ItemDef.OID.LB.LBORRESU" Name="LBORRESU" DataType="string" Length="40" SASFieldName="LBORRESU" Comment="Original units in which the data were collected. The unit for LBORRES. Example: g/L.">
                <CodeListRef CodeListOID="CodeLists.OID.UNIT"/>
            </ItemDef>
            <ItemDef OID="ItemDef.OID.LB.LBREASND" Name="LBREASND" DataType="string" Length="200" SASFieldName="LBREASND" Comment="Describes why a measurement or test was not performed such as BROKEN EQUIPMENT, SUBJECT REFUSED, or SPECIMEN LOST. Used in conjunction with LBSTAT when value is NOT DONE."/>
            <ItemDef OID="ItemDef.OID.LB.LBREFID" Name="LBREFID" DataType="string" Length="40" SASFieldName="LBREFID" Comment="Internal or external specimen identifier. Example: Specimen ID."/>
            <ItemDef OID="ItemDef.OID.LB.LBRFTDTC" Name="LBRFTDTC" DataType="string" Length="64" SASFieldName="LBRFTDTC" Comment="Date/time of the reference time point, LBTPTREF."/>
            <ItemDef OID="ItemDef.OID.LB.LBSCAT" Name="LBSCAT" DataType="string" Length="40" SASFieldName="LBSCAT" Comment="A further categorization of a test category such as DIFFERENTIAL, COAGULATON, LIVER FUNCTION, ELECTROLYTES."/>
            <ItemDef OID="ItemDef.OID.LB.LBSEQ" Name="LBSEQ" DataType="integer" Length="8" SASFieldName="LBSEQ" Comment="Sequence Number given to ensure uniqueness of subject records within a domain. May be any valid number."/>
            <ItemDef OID="ItemDef.OID.LB.LBSPCCND" Name="LBSPCCND" DataType="string" Length="40" SASFieldName="LBSPCCND" Comment="Free or standardized text describing the condition of the specimen e.g. HEMOLYZED, ICTERIC, LIPEMIC etc."/>
            <ItemDef OID="ItemDef.OID.LB.LBSPEC" Name="LBSPEC" DataType="string" Length="20" SASFieldName="LBSPEC" Comment="Defines the type of specimen used for a measurement. Examples: SERUM, PLASMA, URINE."/>
            <ItemDef OID="ItemDef.OID.LB.LBSPID" Name="LBSPID" DataType="string" Length="40" SASFieldName="LBSPID" Comment="Sponsor-defined reference number. Perhaps pre-printed on the CRF as an explicit line identifier or defined in the sponsor's operational database. Example: Line number on the Lab page."/>
            <ItemDef OID="ItemDef.OID.LB.LBSTAT" Name="LBSTAT" DataType="string" Length="40" SASFieldName="LBSTAT" Comment="Used to indicate exam not done. Should be null if a result exists in LBORRES.">
                <CodeListRef CodeListOID="CodeLists.OID.ND"/>
            </ItemDef>
            <ItemDef OID="ItemDef.OID.LB.LBSTNRC" Name="LBSTNRC" DataType="string" Length="40" SASFieldName="LBSTNRC" Comment="For normal range values that are character in ordinal scale or if categorical ranges were supplied (e.g., '-1 to +1', 'NEGATIVE TO TRACE')."/>
            <ItemDef OID="ItemDef.OID.LB.LBSTNRHI" Name="LBSTNRHI" DataType="float" Length="8" SignificantDigits="2" SASFieldName="LBSTNRHI" Comment="Upper end of reference range for continuous measurements in standardized units. Should be populated only for continuous results."/>
            <ItemDef OID="ItemDef.OID.LB.LBSTNRLO" Name="LBSTNRLO" DataType="float" Length="8" SignificantDigits="2" SASFieldName="LBSTNRLO" Comment="Lower end of reference range for continuous measurements for LBSTRESC/LBSTRESN in standardized units. Should be populated only for continuous results."/>
            <ItemDef OID="ItemDef.OID.LB.LBSTRESC" Name="LBSTRESC" DataType="string" Length="200" SASFieldName="LBSTRESC" Comment="Contains the result value for all findings, copied or derived from LBORRES in a standard format or standard units. LBSTRESC should store all results or findings in character format; if results are numeric, they should also be stored in numeric format in LBSTRESN. For example, if a test has results 'NONE', 'NEG', and 'NEGATIVE' in LBORRES and these results effectively have the same meaning, they could be represented in standard format in LBSTRESC as 'NEGATIVE'. For other examples, see general assumptions."/>
            <ItemDef OID="ItemDef.OID.LB.LBSTRESN" Name="LBSTRESN" DataType="float" Length="8" SignificantDigits="2" SASFieldName="LBSTRESN" Comment="Used for continuous or numeric results or findings in standard format; copied in numeric format from LBSTRESC. LBSTRESN should store all numeric test results or findings."/>
            <ItemDef OID="ItemDef.OID.LB.LBSTRESU" Name="LBSTRESU" DataType="string" Length="40" SASFieldName="LBSTRESU" Comment="Standardized unit used for LBSTRESC or LBSTRESN.">
                <CodeListRef CodeListOID="CodeLists.OID.UNIT"/>
            </ItemDef>
            <ItemDef OID="ItemDef.OID.LB.LBTEST" Name="LBTEST" DataType="string" Length="40" SASFieldName="LBTEST" Comment="Verbatim name of the test or examination used to obtain the measurement or finding. Note any test normally performed by a clinical laboratory is considered a lab test. The value in LBTEST cannot be longer than 40 characters. Examples: Alanine Aminotransferase, Lactate Dehydrogenase.">
                <CodeListRef CodeListOID="CodeLists.OID.LBTEST"/>
            </ItemDef>
            <ItemDef OID="ItemDef.OID.LB.LBTESTCD" Name="LBTESTCD" DataType="string" Length="8" SASFieldName="LBTESTCD" Comment="Short name of the measurement, test, or examination described in LBTEST. It can be used as a column name when converting a dataset from a vertical to a horizontal format. The value in LBTESTCD cannot be longer than 8 characters, nor can it start with a number (e.g.'1TEST'). LBTESTCD cannot contain characters other than letters, numbers, or underscores. Examples: ALT, LDH.">
                <CodeListRef CodeListOID="CodeLists.OID.LBTESTCD"/>
            </ItemDef>
            <ItemDef OID="ItemDef.OID.LB.LBTOX" Name="LBTOX" DataType="string" Length="40" SASFieldName="LBTOX" Comment="Description of toxicity quantified by LBTOXGR. The sponsor is expected to provide the name of the scale and version used to map the terms, utilizing the define.xml external codelist attributes."/>
            <ItemDef OID="ItemDef.OID.LB.LBTOXGR" Name="LBTOXGR" DataType="string" Length="20" SASFieldName="LBTOXGR" Comment="Records toxicity grade value using a standard toxicity scale (such as the NCI CTCAE). If value is from a numeric scale, represent only the number (e.g., '2' and not 'Grade 2')."/>
            <ItemDef OID="ItemDef.OID.LB.LBTPT" Name="LBTPT" DataType="string" Length="40" SASFieldName="LBTPT" Comment="1. Text Description of time when specimen should be taken. 2. This may be represented as an elapsed time relative to a fixed reference point, such as time of last dose. See LBTPTNUM and LBTPTREF. Examples: Start, 5 min post."/>
            <ItemDef OID="ItemDef.OID.LB.LBTPTNUM" Name="LBTPTNUM" DataType="float" Length="8" SignificantDigits="1" SASFieldName="LBTPTNUM" Comment="Numerical version of LBTPT to aid in sorting."/>
            <ItemDef OID="ItemDef.OID.LB.LBTPTREF" Name="LBTPTREF" DataType="string" Length="40" SASFieldName="LBTPTREF" Comment="Name of the fixed reference point referred to by LBELTM, LBTPTNUM, and LBTPT. Examples: PREVIOUS DOSE, PREVIOUS MEAL."/>
            <ItemDef OID="ItemDef.OID.MH.DOMAIN" Name="DOMAIN" DataType="string" Length="8" SASFieldName="DOMAIN" Comment="Two-character abbreviation for the domain."/>
            <ItemDef OID="ItemDef.OID.MH.MHBODSYS" Name="MHBODSYS" DataType="string" Length="80" SASFieldName="MHBODSYS" Comment="Dictionary-derived. Body system or organ class that is involved in an event or measurement from a standard hierarchy (e.g., MedDRA). When using a multi-axial dictionary such as MedDRA, this should contain the SOC used for the sponsor's analyses and summary tables which may not necessarily be the primary SOC."/>
            <ItemDef OID="ItemDef.OID.MH.MHCAT" Name="MHCAT" DataType="string" Length="40" SASFieldName="MHCAT" Comment="Used to define a category of related records. Examples: CARDIAC or GENERAL"/>
            <ItemDef OID="ItemDef.OID.MH.MHDECOD" Name="MHDECOD" DataType="string" Length="200" SASFieldName="MHDECOD" Comment="Dictionary-derived text description of MHTERM or MHMODIFY. Equivalent to the Preferred Term (PT in MedDRA). The sponsor is expected to provide the dictionary name and version used to map the terms utilizing the define.xml external codelist attributes"/>
            <ItemDef OID="ItemDef.OID.MH.MHDTC" Name="MHDTC" DataType="string" Length="64" SASFieldName="MHDTC"/>
            <ItemDef OID="ItemDef.OID.MH.MHDY" Name="MHDY" DataType="integer" Length="8" SASFieldName="MHDY" Comment="1. Study day of medical history collection, measured as integer days. 2. Algorithm for calculations must be relative to the sponsor-defined RFSTDTC variable in Demographics. This formula should be consistent across the submission."/>
            <ItemDef OID="ItemDef.OID.MH.MHENDTC" Name="MHENDTC" DataType="string" Length="64" SASFieldName="MHENDTC"/>
            <ItemDef OID="ItemDef.OID.MH.MHENRF" Name="MHENRF" DataType="string" Length="20" SASFieldName="MHENRF" Comment="Describes the end of the event relative to the sponsor-defined reference period. The sponsor-defined reference period is a continuous period of time defined by a discrete starting point and a discrete ending point (represented by RFSTDTC and RFENDTC in Demographics)">
                <CodeListRef CodeListOID="CodeLists.OID.STENRF"/>
            </ItemDef>
            <ItemDef OID="ItemDef.OID.MH.MHENRTPT" Name="MHENRTPT" DataType="string" Length="40" SASFieldName="MHENRTPT" Comment="Identifies the end of the event as being before or after the reference time point defined by variable MHENTPT."/>
            <ItemDef OID="ItemDef.OID.MH.MHENTPT" Name="MHENTPT" DataType="string" Length="40" SASFieldName="MHENTPT" Comment="Description or date/time in ISO 8601 character format of the reference point referred to by MHENRTPT. Examples: &quot;2003-12-25&quot; or &quot;VISIT 2&quot;."/>
            <ItemDef OID="ItemDef.OID.MH.MHGRPID" Name="MHGRPID" DataType="string" Length="40" SASFieldName="MHGRPID" Comment="Used to tie together a block of related records in a single domain for a subject."/>
            <ItemDef OID="ItemDef.OID.MH.MHMODIFY" Name="MHMODIFY" DataType="string" Length="200" SASFieldName="MHMODIFY" Comment="If MHTERM is modified to facilitate coding, then MHMODIFY will contain the modified text."/>
            <ItemDef OID="ItemDef.OID.MH.MHOCCUR" Name="MHOCCUR" DataType="string" Length="2" SASFieldName="MHOCCUR" Comment="Used when the occurrence of specific medical history conditions is solicited to indicate whether or not (Y/N) a medical condition (MHTERM) had ever occurred. Values are null for spontaneously reported events.">
                <CodeListRef CodeListOID="CodeLists.OID.NY"/>
            </ItemDef>
            <ItemDef OID="ItemDef.OID.MH.MHPRESP" Name="MHPRESP" DataType="string" Length="2" SASFieldName="MHPRESP" Comment="A value of 'Y' indicates that this medical history event was pre-specified on the CRF. Values are null for spontaneously reported events (i.e., those collected as free-text verbatim terms)">
                <CodeListRef CodeListOID="CodeLists.OID.NY"/>
            </ItemDef>
            <ItemDef OID="ItemDef.OID.MH.MHREASND" Name="MHREASND" DataType="string" Length="200" SASFieldName="MHREASND" Comment="Describes the reason data for a pre-specified condition was not collected. Used in conjunction with MHSTAT when value is NOT DONE."/>
            <ItemDef OID="ItemDef.OID.MH.MHREFID" Name="MHREFID" DataType="string" Length="40" SASFieldName="MHREFID" Comment="Internal or external medical history identifier."/>
            <ItemDef OID="ItemDef.OID.MH.MHSCAT" Name="MHSCAT" DataType="string" Length="40" SASFieldName="MHSCAT" Comment="A further categorization of the condition or event."/>
            <ItemDef OID="ItemDef.OID.MH.MHSEQ" Name="MHSEQ" DataType="integer" Length="8" SASFieldName="MHSEQ" Comment="Sequence Number given to ensure uniqueness of subject records within a domain. May be any valid number."/>
            <ItemDef OID="ItemDef.OID.MH.MHSPID" Name="MHSPID" DataType="string" Length="40" SASFieldName="MHSPID" Comment="Sponsor-defined reference number. Perhaps pre-printed on the CRF as an explicit line identifier or defined in the sponsor's operational database. Example: Line number on a Medical History page."/>
            <ItemDef OID="ItemDef.OID.MH.MHSTAT" Name="MHSTAT" DataType="string" Length="40" SASFieldName="MHSTAT" Comment="The status indicates that the pre-specified question was not answered.">
                <CodeListRef CodeListOID="CodeLists.OID.ND"/>
            </ItemDef>
            <ItemDef OID="ItemDef.OID.MH.MHSTDTC" Name="MHSTDTC" DataType="string" Length="64" SASFieldName="MHSTDTC"/>
            <ItemDef OID="ItemDef.OID.MH.MHTERM" Name="MHTERM" DataType="string" Length="200" SASFieldName="MHTERM" Comment="Verbatim or preprinted CRF term for the medical condition or event."/>
            <ItemDef OID="ItemDef.OID.DM.RACE" Name="RACE" DataType="string" Length="40" SASFieldName="RACE" Comment="Race of the subject. Sponsors should refer to 'Collection of Race and Ethnicity Data in Clinical Trials' (FDA, September 2005) for guidance regarding the collection of race (http://www.fda.gov/cder/guidance/5656fnl.htm) See Assumption below regarding RACE."/>
            <ItemDef OID="ItemDef.OID.DM.RFENDTC" Name="RFENDTC" DataType="string" Length="64" SASFieldName="RFENDTC" Comment="Reference End Date/time for the subject in ISO 8601 character format. Usually equivalent to the date/time when subject was determined to have ended the trial, and often equivalent to date/time of last exposure to study treatment. Required for all randomized subjects; null for screen failures or unassigned subjects."/>
            <ItemDef OID="ItemDef.OID.DM.RFSTDTC" Name="RFSTDTC" DataType="string" Length="64" SASFieldName="RFSTDTC" Comment="Reference Start Date/time for the subject in ISO 8601 character format. Usually equivalent to date/time when subject was first exposed to study treatment. Required for all randomized subjects; will be null for all subjects who did not meet the milestone the date requires, such as screen failures or unassigned subjects."/>
            <ItemDef OID="ItemDef.OID.DM.SEX" Name="SEX" DataType="string" Length="2" SASFieldName="SEX" Comment="Sex of the subject.">
                <CodeListRef CodeListOID="CodeLists.OID.SEX"/>
            </ItemDef>
            <ItemDef OID="ItemDef.OID.DM.SITEID" Name="SITEID" DataType="string" Length="40" SASFieldName="SITEID" Comment="Unique identifier for a site within a study."/>
            <ItemDef OID="ItemDef.OID.DM.STUDYID" Name="STUDYID" DataType="string" Length="40" SASFieldName="STUDYID" Comment="Unique identifier for a study."/>
            <ItemDef OID="ItemDef.OID.LB.STUDYID" Name="STUDYID" DataType="string" Length="40" SASFieldName="STUDYID" Comment="Unique identifier for a study."/>
            <ItemDef OID="ItemDef.OID.MH.STUDYID" Name="STUDYID" DataType="string" Length="40" SASFieldName="STUDYID" Comment="Unique identifier for a study."/>
            <ItemDef OID="ItemDef.OID.VS.STUDYID" Name="STUDYID" DataType="string" Length="40" SASFieldName="STUDYID" Comment="Unique identifier for a study."/>
            <ItemDef OID="ItemDef.OID.DM.SUBJID" Name="SUBJID" DataType="string" Length="40" SASFieldName="SUBJID" Comment="Subject identifier, which must be unique within the study. Often the ID of the subject as recorded on a CRF."/>
            <ItemDef OID="ItemDef.OID.DM.USUBJID" Name="USUBJID" DataType="string" Length="40" SASFieldName="USUBJID" Comment="Identifier used to uniquely identify a subject across all studies for all applications or submissions involving the product. This must be a unique number, and could be a compound identifier formed by concatenating STUDYID-SITEID-SUBJID."/>
            <ItemDef OID="ItemDef.OID.LB.USUBJID" Name="USUBJID" DataType="string" Length="40" SASFieldName="USUBJID" Comment="Identifier used to uniquely identify a subject across all studies for all applications or submissions involving the product."/>
            <ItemDef OID="ItemDef.OID.MH.USUBJID" Name="USUBJID" DataType="string" Length="40" SASFieldName="USUBJID" Comment="Identifier used to uniquely identify a subject across all studies for all applications or submissions involving the product."/>
            <ItemDef OID="ItemDef.OID.VS.USUBJID" Name="USUBJID" DataType="string" Length="40" SASFieldName="USUBJID" Comment="Identifier used to uniquely identify a subject across all studies for all applications or submissions involving the product."/>
            <ItemDef OID="ItemDef.OID.LB.VISIT" Name="VISIT" DataType="string" Length="40" SASFieldName="VISIT" Comment="1. Protocol-defined description of clinical encounter 2. May be used in addition to VISITNUM and/or VISITDY"/>
            <ItemDef OID="ItemDef.OID.VS.VISIT" Name="VISIT" DataType="string" Length="40" SASFieldName="VISIT" Comment="1. Protocol-defined description of clinical encounter. 2. May be used in addition to VISITNUM and/or VISITDY."/>
            <ItemDef OID="ItemDef.OID.LB.VISITDY" Name="VISITDY" DataType="integer" Length="8" SASFieldName="VISITDY" Comment="Planned study day of the visit based upon RFSTDTC in Demographics."/>
            <ItemDef OID="ItemDef.OID.VS.VISITDY" Name="VISITDY" DataType="integer" Length="8" SASFieldName="VISITDY" Comment="Planned study day of the visit based upon RFSTDTC in Demographics."/>
            <ItemDef OID="ItemDef.OID.LB.VISITNUM" Name="VISITNUM" DataType="float" Length="8" SignificantDigits="1" SASFieldName="VISITNUM" Comment="1. Clinical encounter number.  2. Numeric version of VISIT, used for sorting."/>
            <ItemDef OID="ItemDef.OID.VS.VISITNUM" Name="VISITNUM" DataType="float" Length="8" SignificantDigits="1" SASFieldName="VISITNUM" Comment="1. Clinical encounter number. 2. Numeric version of VISIT, used for sorting."/>
            <ItemDef OID="ItemDef.OID.VS.VSBLFL" Name="VSBLFL" DataType="string" Length="2" SASFieldName="VSBLFL" Comment="Indicator used to identify a baseline value. The value should be 'Y' or null.">
                <CodeListRef CodeListOID="CodeLists.OID.NY"/>
            </ItemDef>
            <ItemDef OID="ItemDef.OID.VS.DOMAIN" Name="DOMAIN" DataType="string" Length="8" SASFieldName="DOMAIN" Comment="Two-character abbreviation for the domain."/>
            <ItemDef OID="ItemDef.OID.VS.VSCAT" Name="VSCAT" DataType="string" Length="40" SASFieldName="VSCAT" Comment="Used to define a category of related records."/>
            <ItemDef OID="ItemDef.OID.VS.VSDRVFL" Name="VSDRVFL" DataType="string" Length="2" SASFieldName="VSDRVFL" Comment="Used to indicate a derived record. The value should be Y or null. Records which represent the average of other records or which do not come from the CRF are examples of records that would be derived for the submission datasets. If VSDRVFL=Y, then VSORRES may be null, with VSSTRESC and (if numeric) VSSTRESN having the derived value.">
                <CodeListRef CodeListOID="CodeLists.OID.NY"/>
            </ItemDef>
            <ItemDef OID="ItemDef.OID.VS.VSDTC" Name="VSDTC" DataType="string" Length="64" SASFieldName="VSDTC"/>
            <ItemDef OID="ItemDef.OID.VS.VSDY" Name="VSDY" DataType="integer" Length="8" SASFieldName="VSDY" Comment="1. Study day of vital signs measurements, measured as integer days. 2. Algorithm for calculations must be relative to the sponsor-defined RFSTDTC variable in Demographics."/>
            <ItemDef OID="ItemDef.OID.VS.VSELTM" Name="VSELTM" DataType="string" Length="64" SASFieldName="VSELTM" Comment="Planned Elapsed time (in ISO 8601) relative to a planned fixed reference (VSTPTREF). This variable is useful where there are repetitive measures. Not a clock time or a date time variable. Represented as an ISO 8601 Duration. Examples: '-PT15M' to represent the period of 15 minutes prior to the reference point indicated by VSTPTREF, or 'PT8H' to represent the period of 8 hours after the reference point indicated by VSTPTREF."/>
            <ItemDef OID="ItemDef.OID.VS.VSGRPID" Name="VSGRPID" DataType="string" Length="40" SASFieldName="VSGRPID" Comment="Used to tie together a block of related records in a single domain for a subject."/>
            <ItemDef OID="ItemDef.OID.VS.VSLOC" Name="VSLOC" DataType="string" Length="40" SASFieldName="VSLOC" Comment="Location relevant to the collection of Vital Signs measurement. Example: LEFT ARM for blood pressure."/>
            <ItemDef OID="ItemDef.OID.VS.VSORRES" Name="VSORRES" DataType="string" Length="200" SASFieldName="VSORRES" Comment="Result of the vital signs measurement as originally received or collected."/>
            <ItemDef OID="ItemDef.OID.VS.VSORRESU" Name="VSORRESU" DataType="string" Length="40" SASFieldName="VSORRESU" Comment="Original units in which the data were collected. The unit for VSORRES. Examples: IN, LB, BEATS/MIN.">
                <CodeListRef CodeListOID="CodeLists.OID.VSRESU"/>
            </ItemDef>
            <ItemDef OID="ItemDef.OID.VS.VSPOS" Name="VSPOS" DataType="string" Length="40" SASFieldName="VSPOS" Comment="Position of the subject during a measurement or examination. Examples: SUPINE, STANDING, SITTING."/>
            <ItemDef OID="ItemDef.OID.VS.VSREASND" Name="VSREASND" DataType="string" Length="200" SASFieldName="VSREASND" Comment="Describes why a measurement or test was not performed. Examples: BROKEN EQUIPMENT or SUBJECT REFUSED. Used in conjunction with VSSTAT when value is NOT DONE."/>
            <ItemDef OID="ItemDef.OID.VS.VSRFTDTC" Name="VSRFTDTC" DataType="string" Length="64" SASFieldName="VSRFTDTC" Comment="Date/time of the reference time point, LBTPTREF."/>
            <ItemDef OID="ItemDef.OID.VS.VSSCAT" Name="VSSCAT" DataType="string" Length="40" SASFieldName="VSSCAT" Comment="A further categorization of a measurement or examination."/>
            <ItemDef OID="ItemDef.OID.VS.VSSEQ" Name="VSSEQ" DataType="integer" Length="8" SASFieldName="VSSEQ" Comment="Sequence Number given to ensure uniqueness of subject records within a domain. May be any valid number."/>
            <ItemDef OID="ItemDef.OID.VS.VSSPID" Name="VSSPID" DataType="string" Length="40" SASFieldName="VSSPID" Comment="Sponsor-defined reference number. Perhaps pre-printed on the CRF as an explicit line identifier or defined in the sponsor's operational database."/>
            <ItemDef OID="ItemDef.OID.VS.VSSTAT" Name="VSSTAT" DataType="string" Length="40" SASFieldName="VSSTAT" Comment="Used to indicate that a vital sign measurement was not done. Should be null if a result exists in VSORRES.">
                <CodeListRef CodeListOID="CodeLists.OID.ND"/>
            </ItemDef>
            <ItemDef OID="ItemDef.OID.VS.VSSTRESC" Name="VSSTRESC" DataType="string" Length="200" SASFieldName="VSSTRESC" Comment="Contains the result value for all findings, copied or derived from VSORRES in a standard format or standard units. VSSTRESC should store all results or findings in character format; if results are numeric, they should also be stored in numeric format in VSSTRESN. For example, if a test has results 'NONE', 'NEG', and 'NEGATIVE' in VSORRES and these results effectively have the same meaning, they could be represented in standard format in VSSTRESC as 'NEGATIVE'."/>
            <ItemDef OID="ItemDef.OID.VS.VSSTRESN" Name="VSSTRESN" DataType="float" Length="8" SignificantDigits="2" SASFieldName="VSSTRESN" Comment="Used for continuous or numeric results or findings in standard format; copied in numeric format from VSSTRESC. VSSTRESN should store all numeric test results or findings."/>
            <ItemDef OID="ItemDef.OID.VS.VSSTRESU" Name="VSSTRESU" DataType="string" Length="40" SASFieldName="VSSTRESU" Comment="Standardized unit used for VSSTRESC and VSSTRESN.">
                <CodeListRef CodeListOID="CodeLists.OID.VSRESU"/>
            </ItemDef>
            <ItemDef OID="ItemDef.OID.VS.VSTEST" Name="VSTEST" DataType="string" Length="40" SASFieldName="VSTEST" Comment="Verbatim name of the test or examination used to obtain the measurement or finding. The value in VSTEST cannot be longer than 40 characters. Examples: Systolic Blood Pressure, Diastolic Blood Pressure, Body Mass Index."/>
            <ItemDef OID="ItemDef.OID.VS.VSTESTCD" Name="VSTESTCD" DataType="string" Length="8" SASFieldName="VSTESTCD" Comment="Short name of the measurement, test, or examination described in VSTEST. It can be used as a column name when converting a dataset from a vertical to a horizontal format. The value in VSTESTCD cannot be longer than 8 characters, nor can it start with a number (e.g.'1TEST'). VSTESTCD cannot contain characters other than letters, numbers, or underscores. Examples: SYSBP, DIABP, BMI.">
                <CodeListRef CodeListOID="CodeLists.OID.VSTESTCD"/>
            </ItemDef>
            <ItemDef OID="ItemDef.OID.VS.VSTPT" Name="VSTPT" DataType="string" Length="40" SASFieldName="VSTPT" Comment="1. Text Description of time when measurement should be taken. 2. This may be represented as an elapsed time relative to a fixed reference point, such as time of last dose. See VSTPTNUM and VSTPTREF. Examples: Start, 5 min post."/>
            <ItemDef OID="ItemDef.OID.VS.VSTPTNUM" Name="VSTPTNUM" DataType="float" Length="8" SignificantDigits="1" SASFieldName="VSTPTNUM" Comment="Numerical version of VSTPT to aid in sorting."/>
            <ItemDef OID="ItemDef.OID.VS.VSTPTREF" Name="VSTPTREF" DataType="string" Length="40" SASFieldName="VSTPTREF" Comment="Name of the fixed reference point referred to by VSELTM, VSTPTNUM, and VSTPT. Examples: PREVIOUS DOSE, PREVIOUS MEAL."/>
            <ItemDef OID="ItemDef.OID.lnr.cshigh" Name="cshigh" DataType="text" Length="40" SASFieldName="cshigh">
                <Description>
                    <TranslatedText xml:lang="de">Klinisch signifikante hohe Ergebnis</TranslatedText>
                    <TranslatedText xml:lang="en">Clinically significant high result</TranslatedText>
                    <TranslatedText xml:lang="fr-CA">Cliniquement significative resultat eleve</TranslatedText>
                </Description>
                <Question>
                    <TranslatedText xml:lang="de">Ist das hohe Ergebnis klinisch signifikant?</TranslatedText>
                    <TranslatedText xml:lang="en">Is the high result clinically significant?</TranslatedText>
                    <TranslatedText xml:lang="fr-CA">Est-ce le resultat de haute cliniquement significative?</TranslatedText>
                </Question>
                <ExternalQuestion Dictionary="CDASH Master Reference" Version="2.14b" Code="lab24079"/>
                <Role>Safety metric</Role>
                <Alias Context="Testing" Name="clinhigh"/>
            </ItemDef>
            <ItemDef OID="ItemDef.OID.lnr.cslow" Name="cslow" DataType="text" Length="40" SASFieldName="cslow">
                <Role>Safety metric</Role>
            </ItemDef>
            <ItemDef OID="ItemDef.OID.lnr.highage" Name="highage" DataType="integer" Length="8" SASFieldName="highage">
                <MeasurementUnitRef MeasurementUnitOID="MeasurementUnits.OID.YRS"/>
            </ItemDef>
            <ItemDef OID="ItemDef.OID.lnr.lbnam" Name="lbnam" DataType="text" Length="40" SASFieldName="lbnam"/>
            <ItemDef OID="ItemDef.OID.lnr.lbornrhi" Name="lbornrhi" DataType="string" Length="40" SASFieldName="lbornrhi"/>
            <ItemDef OID="ItemDef.OID.lnr.lbornrlo" Name="lbornrlo" DataType="string" Length="40" SASFieldName="lbornrlo"/>
            <ItemDef OID="ItemDef.OID.lnr.lborresu" Name="lborresu" DataType="string" Length="40" SASFieldName="lborresu">
                <CodeListRef CodeListOID="CodeLists.OID.UNIT"/>
            </ItemDef>
            <ItemDef OID="ItemDef.OID.lnr.lbtestcd" Name="lbtestcd" DataType="string" Length="8" SASFieldName="lbtestcd">
                <CodeListRef CodeListOID="CodeLists.OID.LBTESTCD"/>
            </ItemDef>
            <ItemDef OID="ItemDef.OID.lnr.lowage" Name="lowage" DataType="integer" Length="8" SASFieldName="lowage">
                <MeasurementUnitRef MeasurementUnitOID="MeasurementUnits.OID.YRS"/>
            </ItemDef>
            <ItemDef OID="ItemDef.OID.lnr.sex" Name="sex" DataType="string" Length="2" SASFieldName="sex">
                <CodeListRef CodeListOID="CodeLists.OID.SEX"/>
            </ItemDef>
            <ItemDef OID="ItemDef.OID.lnr.siteid" Name="siteid" DataType="string" Length="40" SASFieldName="siteid"/>
            <ItemDef OID="ItemDef.OID.lnr.studyid" Name="studyid" DataType="string" Length="40" SASFieldName="studyid"/>
            <CodeList OID="CL.$TAREAF" Name="$TAREAF" DataType="text" SASFormatName="$TAREAF">
                <CodeListItem CodedValue="ONC">
                    <Decode>
                        <TranslatedText xml:lang="en">Oncology</TranslatedText>
                    </Decode>
                </CodeListItem>
            </CodeList>
            <CodeList OID="CodeLists.OID.ND" Name="ND" DataType="text" SASFormatName="$ND">
                <CodeListItem CodedValue="ND">
                    <Decode>
                        <TranslatedText xml:lang="en">NOT DONE</TranslatedText>
                    </Decode>
                </CodeListItem>
            </CodeList>
            <CodeList OID="CodeLists.OID.STENRF" Name="STENRF" DataType="text" SASFormatName="$STENRF">
                <CodeListItem CodedValue="BEFORE">
                    <Decode>
                        <TranslatedText>BEFORE</TranslatedText>
                    </Decode>
                </CodeListItem>
                <CodeListItem CodedValue="DURING">
                    <Decode>
                        <TranslatedText>DURING</TranslatedText>
                    </Decode>
                </CodeListItem>
                <CodeListItem CodedValue="AFTER">
                    <Decode>
                        <TranslatedText>AFTER</TranslatedText>
                    </Decode>
                </CodeListItem>
                <CodeListItem CodedValue="DURING/ AFTER">
                    <Decode>
                        <TranslatedText>DURING/ AFTER</TranslatedText>
                    </Decode>
                </CodeListItem>
                <CodeListItem CodedValue="U">
                    <Decode>
                        <TranslatedText>U</TranslatedText>
                    </Decode>
                </CodeListItem>
            </CodeList>
            <CodeList OID="CodeLists.OID.VSRESU" Name="VSRESU" DataType="text" SASFormatName="$VSRESU">
                <CodeListItem CodedValue="kg">
                    <Decode>
                        <TranslatedText>kg</TranslatedText>
                    </Decode>
                </CodeListItem>
                <CodeListItem CodedValue="cm">
                    <Decode>
                        <TranslatedText>cm</TranslatedText>
                    </Decode>
                </CodeListItem>
                <CodeListItem CodedValue="BEATS/MIN">
                    <Decode>
                        <TranslatedText>BEATS/MIN</TranslatedText>
                    </Decode>
                </CodeListItem>
                <CodeListItem CodedValue="mmHg">
                    <Decode>
                        <TranslatedText>mmHg</TranslatedText>
                    </Decode>
                </CodeListItem>
            </CodeList>
            <CodeList OID="CodeLists.OID.NY" Name="NY" DataType="text" SASFormatName="$NY">
                <CodeListItem CodedValue="N">
                    <Decode>
                        <TranslatedText xml:lang="en">NO</TranslatedText>
                    </Decode>
                </CodeListItem>
                <CodeListItem CodedValue="U">
                    <Decode>
                        <TranslatedText xml:lang="en">UNKNOWN</TranslatedText>
                    </Decode>
                </CodeListItem>
                <CodeListItem CodedValue="Y">
                    <Decode>
                        <TranslatedText xml:lang="en">YES</TranslatedText>
                    </Decode>
                </CodeListItem>
            </CodeList>
            <CodeList OID="CL.$SCTRYF" Name="$SCTRYF" DataType="text" SASFormatName="$SCTRYF">
                <CodeListItem CodedValue="USA">
                    <Decode>
                        <TranslatedText xml:lang="en">United States</TranslatedText>
                    </Decode>
                </CodeListItem>
            </CodeList>
            <CodeList OID="CL.$F_STATU" Name="$F_STATU" DataType="text" SASFormatName="$F_STATU">
                <CodeListItem CodedValue="S">
                    <Decode>
                        <TranslatedText xml:lang="en">Source verified, not queried</TranslatedText>
                    </Decode>
                </CodeListItem>
                <CodeListItem CodedValue="V">
                    <Decode>
                        <TranslatedText xml:lang="en">Source verified, queried</TranslatedText>
                    </Decode>
                </CodeListItem>
            </CodeList>
            <CodeList OID="CL.$AESEV" Name="$AESEV" DataType="text" SASFormatName="$AESEV">
                <CodeListItem CodedValue="1">
                    <Decode>
                        <TranslatedText xml:lang="en">Mild</TranslatedText>
                    </Decode>
                </CodeListItem>
                <CodeListItem CodedValue="2">
                    <Decode>
                        <TranslatedText xml:lang="en">Moderate</TranslatedText>
                    </Decode>
                </CodeListItem>
                <CodeListItem CodedValue="3">
                    <Decode>
                        <TranslatedText xml:lang="en">Severe</TranslatedText>
                    </Decode>
                </CodeListItem>
                <CodeListItem CodedValue="4">
                    <Decode>
                        <TranslatedText xml:lang="en">Life Threatening</TranslatedText>
                    </Decode>
                </CodeListItem>
            </CodeList>
            <CodeList OID="CL.$AEREL" Name="$AEREL" DataType="text" SASFormatName="$AEREL">
                <CodeListItem CodedValue="0">
                    <Decode>
                        <TranslatedText xml:lang="en">None</TranslatedText>
                    </Decode>
                </CodeListItem>
                <CodeListItem CodedValue="1">
                    <Decode>
                        <TranslatedText xml:lang="en">Unlikely</TranslatedText>
                    </Decode>
                </CodeListItem>
                <CodeListItem CodedValue="2">
                    <Decode>
                        <TranslatedText xml:lang="en">Possible</TranslatedText>
                    </Decode>
                </CodeListItem>
                <CodeListItem CodedValue="3">
                    <Decode>
                        <TranslatedText xml:lang="en">Probable</TranslatedText>
                    </Decode>
                </CodeListItem>
            </CodeList>
            <CodeList OID="CL.$AEOUT" Name="$AEOUT" DataType="text" SASFormatName="$AEOUT">
                <CodeListItem CodedValue="1">
                    <Decode>
                        <TranslatedText xml:lang="en">Resolved, no residual effects</TranslatedText>
                    </Decode>
                </CodeListItem>
                <CodeListItem CodedValue="2">
                    <Decode>
                        <TranslatedText xml:lang="en">Continuing</TranslatedText>
                    </Decode>
                </CodeListItem>
                <CodeListItem CodedValue="3">
                    <Decode>
                        <TranslatedText xml:lang="en">Resolved, residual effects</TranslatedText>
                    </Decode>
                </CodeListItem>
                <CodeListItem CodedValue="4">
                    <Decode>
                        <TranslatedText xml:lang="en">Death</TranslatedText>
                    </Decode>
                </CodeListItem>
            </CodeList>
            <CodeList OID="CL.$AEACTTR" Name="$AEACTTR" DataType="text" SASFormatName="$AEACTTR">
                <CodeListItem CodedValue="0">
                    <Decode>
                        <TranslatedText xml:lang="en">None</TranslatedText>
                    </Decode>
                </CodeListItem>
                <CodeListItem CodedValue="1">
                    <Decode>
                        <TranslatedText xml:lang="en">Discontinued permanently</TranslatedText>
                    </Decode>
                </CodeListItem>
                <CodeListItem CodedValue="2">
                    <Decode>
                        <TranslatedText xml:lang="en">Reduced</TranslatedText>
                    </Decode>
                </CodeListItem>
                <CodeListItem CodedValue="3">
                    <Decode>
                        <TranslatedText xml:lang="en">Interrupted</TranslatedText>
                    </Decode>
                </CodeListItem>
            </CodeList>
            <CodeList OID="CL.$AECONTR" Name="$AECONTR" DataType="text" SASFormatName="$AECONTR">
                <Description>
                    <TranslatedText xml:lang="en">Codelist description</TranslatedText>
                    <TranslatedText xml:lang="fr-CA">Description du CodeList</TranslatedText>
                </Description>
                <CodeListItem CodedValue="0">
                    <Decode>
                        <TranslatedText xml:lang="en">None</TranslatedText>
                    </Decode>
                    <Alias Context="Testing - New in ODM1.3.1 - Context1" Name="codelistitem_alias1"/>
                </CodeListItem>
                <CodeListItem CodedValue="1">
                    <Decode>
                        <TranslatedText xml:lang="en">Medication required</TranslatedText>
                    </Decode>
                </CodeListItem>
                <CodeListItem CodedValue="2">
                    <Decode>
                        <TranslatedText xml:lang="en">Hospitalization required or prolonged</TranslatedText>
                    </Decode>
                </CodeListItem>
                <CodeListItem CodedValue="3">
                    <Decode>
                        <TranslatedText xml:lang="en">Other</TranslatedText>
                    </Decode>
                </CodeListItem>
                <Alias Context="Testing - New in ODM1.3.1 - Context1" Name="codelist_alias1"/>
            </CodeList>
            <CodeList OID="CodeLists.OID.XT" Name="Biomedical concepts" DataType="string" SASFormatName="$XT">
                <ExternalCodeList Dictionary="NCI Thesaurus" Version="10.10a"/>
            </CodeList>
            <CodeList OID="CodeLists.OID.AGEU" Name="AGEU" DataType="string" SASFormatName="$AGEU">
                <EnumeratedItem CodedValue="YEARS"/>
            </CodeList>
            <CodeList OID="CodeLists.OID.LOWTOHIGH" Name="Enumerated with rank" DataType="string" SASFormatName="$LOHI">
                <EnumeratedItem CodedValue="Low" Rank="1">
                    <Alias Context="Testing - New in ODM1.3.1 - Context1" Name="codelistenumerateditem_alias1"/>
                </EnumeratedItem>
                <EnumeratedItem CodedValue="Medium" Rank="2">
                    <Alias Context="Testing - New in ODM1.3.1 - Context1" Name="codelistenumerateditem_alias2"/>
                </EnumeratedItem>
                <EnumeratedItem CodedValue="High" Rank="3">
                    <Alias Context="Testing - New in ODM1.3.1 - Context1" Name="codelistenumerateditem_alias3"/>
                </EnumeratedItem>
                <Alias Context="Testing - New in ODM1.3.1 - Context1" Name="codelist_alias1"/>
            </CodeList>
            <CodeList OID="CodeLists.OID.COUNTRY" Name="ISO3166" DataType="string">
                <ExternalCodeList Dictionary="ISO3166" Version="2009"/>
            </CodeList>
            <CodeList OID="CodeLists.OID.ETHNIC" Name="Ethnicity" DataType="string" SASFormatName="$ETHNIC">
                <CodeListItem CodedValue="HISPANIC OR LATINO">
                    <Decode>
                        <TranslatedText>HISPANIC OR LATINO</TranslatedText>
                    </Decode>
                </CodeListItem>
                <CodeListItem CodedValue="NOT HISPANIC OR LATINO">
                    <Decode>
                        <TranslatedText>NOT HISPANIC OR LATINO</TranslatedText>
                    </Decode>
                </CodeListItem>
            </CodeList>
            <CodeList OID="CodeLists.OID.SEVERITY" Name="Enumerated without rank" DataType="string" SASFormatName="$SEVTY">
                <EnumeratedItem CodedValue="Mild"/>
                <EnumeratedItem CodedValue="Moderate"/>
                <EnumeratedItem CodedValue="Severe"/>
            </CodeList>
            <CodeList OID="CodeLists.OID.LBTESTCD" Name="LBTESTCD" DataType="string" SASFormatName="$LBTSTCD">
                <CodeListItem CodedValue="A1ANTRYP" Rank="1">
                    <Decode>
                        <TranslatedText xml:lang="en">A1ANTRYP</TranslatedText>
                    </Decode>
                </CodeListItem>
                <CodeListItem CodedValue="A2MACG" Rank="2">
                    <Decode>
                        <TranslatedText xml:lang="en">A2MACG</TranslatedText>
                    </Decode>
                </CodeListItem>
                <CodeListItem CodedValue="ACANT" Rank="3">
                    <Decode>
                        <TranslatedText xml:lang="en">ACANT</TranslatedText>
                    </Decode>
                </CodeListItem>
                <CodeListItem CodedValue="ACANTRBC" Rank="4">
                    <Decode>
                        <TranslatedText xml:lang="en">ACANTRBC</TranslatedText>
                    </Decode>
                </CodeListItem>
                <CodeListItem CodedValue="ACE" Rank="5">
                    <Decode>
                        <TranslatedText xml:lang="en">ACE</TranslatedText>
                    </Decode>
                </CodeListItem>
                <CodeListItem CodedValue="ACH" Rank="6">
                    <Decode>
                        <TranslatedText xml:lang="en">ACH</TranslatedText>
                    </Decode>
                </CodeListItem>
                <CodeListItem CodedValue="ACPHOS" Rank="7">
                    <Decode>
                        <TranslatedText xml:lang="en">ACPHOS</TranslatedText>
                    </Decode>
                </CodeListItem>
                <CodeListItem CodedValue="ACTH" Rank="8">
                    <Decode>
                        <TranslatedText xml:lang="en">ACTH</TranslatedText>
                    </Decode>
                </CodeListItem>
                <CodeListItem CodedValue="ADH" Rank="9">
                    <Decode>
                        <TranslatedText xml:lang="en">ADH</TranslatedText>
                    </Decode>
                </CodeListItem>
                <CodeListItem CodedValue="ADPNCTN" Rank="10">
                    <Decode>
                        <TranslatedText xml:lang="en">ADPNCTN</TranslatedText>
                    </Decode>
                </CodeListItem>
                <CodeListItem CodedValue="ADSDNA" Rank="11">
                    <Decode>
                        <TranslatedText xml:lang="en">ADSDNA</TranslatedText>
                    </Decode>
                </CodeListItem>
                <CodeListItem CodedValue="AFP" Rank="12">
                    <Decode>
                        <TranslatedText xml:lang="en">AFP</TranslatedText>
                    </Decode>
                </CodeListItem>
                <CodeListItem CodedValue="ALB" Rank="13">
                    <Decode>
                        <TranslatedText xml:lang="en">ALB</TranslatedText>
                    </Decode>
                </CodeListItem>
                <CodeListItem CodedValue="ALBCREAT" Rank="14">
                    <Decode>
                        <TranslatedText xml:lang="en">ALBCREAT</TranslatedText>
                    </Decode>
                </CodeListItem>
                <CodeListItem CodedValue="ALBGLOB" Rank="15">
                    <Decode>
                        <TranslatedText xml:lang="en">ALBGLOB</TranslatedText>
                    </Decode>
                </CodeListItem>
                <CodeListItem CodedValue="ALDOLASE" Rank="16">
                    <Decode>
                        <TranslatedText xml:lang="en">ALDOLASE</TranslatedText>
                    </Decode>
                </CodeListItem>
                <CodeListItem CodedValue="ALDSTRN" Rank="17">
                    <Decode>
                        <TranslatedText xml:lang="en">ALDSTRN</TranslatedText>
                    </Decode>
                </CodeListItem>
                <CodeListItem CodedValue="ALP" Rank="18">
                    <Decode>
                        <TranslatedText xml:lang="en">ALP</TranslatedText>
                    </Decode>
                </CodeListItem>
                <CodeListItem CodedValue="ALPCREAT" Rank="19">
                    <Decode>
                        <TranslatedText xml:lang="en">ALPCREAT</TranslatedText>
                    </Decode>
                </CodeListItem>
                <CodeListItem CodedValue="ALT" Rank="20">
                    <Decode>
                        <TranslatedText xml:lang="en">ALT</TranslatedText>
                    </Decode>
                </CodeListItem>
                <CodeListItem CodedValue="AMA" Rank="21">
                    <Decode>
                        <TranslatedText xml:lang="en">AMA</TranslatedText>
                    </Decode>
                </CodeListItem>
                <CodeListItem CodedValue="AMMONIA" Rank="22">
                    <Decode>
                        <TranslatedText xml:lang="en">AMMONIA</TranslatedText>
                    </Decode>
                </CodeListItem>
                <CodeListItem CodedValue="AMORPHSD" Rank="23">
                    <Decode>
                        <TranslatedText xml:lang="en">AMORPHSD</TranslatedText>
                    </Decode>
                </CodeListItem>
                <CodeListItem CodedValue="AMPHET" Rank="24">
                    <Decode>
                        <TranslatedText xml:lang="en">AMPHET</TranslatedText>
                    </Decode>
                </CodeListItem>
                <CodeListItem CodedValue="AMYLASE" Rank="25">
                    <Decode>
                        <TranslatedText xml:lang="en">AMYLASE</TranslatedText>
                    </Decode>
                </CodeListItem>
                <CodeListItem CodedValue="AMYLB42" Rank="26">
                    <Decode>
                        <TranslatedText xml:lang="en">AMYLB42</TranslatedText>
                    </Decode>
                </CodeListItem>
                <CodeListItem CodedValue="AMYLOIDB" Rank="27">
                    <Decode>
                        <TranslatedText xml:lang="en">AMYLOIDB</TranslatedText>
                    </Decode>
                </CodeListItem>
                <CodeListItem CodedValue="AMYLOIDP" Rank="28">
                    <Decode>
                        <TranslatedText xml:lang="en">AMYLOIDP</TranslatedText>
                    </Decode>
                </CodeListItem>
                <CodeListItem CodedValue="ANA" Rank="29">
                    <Decode>
                        <TranslatedText xml:lang="en">ANA</TranslatedText>
                    </Decode>
                </CodeListItem>
                <CodeListItem CodedValue="ANDSTNDL" Rank="30">
                    <Decode>
                        <TranslatedText xml:lang="en">ANDSTNDL</TranslatedText>
                    </Decode>
                </CodeListItem>
                <CodeListItem CodedValue="ANDSTNDN" Rank="31">
                    <Decode>
                        <TranslatedText xml:lang="en">ANDSTNDN</TranslatedText>
                    </Decode>
                </CodeListItem>
                <CodeListItem CodedValue="ANGLOBDR" Rank="32">
                    <Decode>
                        <TranslatedText xml:lang="en">ANGLOBDR</TranslatedText>
                    </Decode>
                </CodeListItem>
                <CodeListItem CodedValue="ANGTNS1" Rank="33">
                    <Decode>
                        <TranslatedText xml:lang="en">ANGTNS1</TranslatedText>
                    </Decode>
                </CodeListItem>
                <CodeListItem CodedValue="ANGTNS2" Rank="34">
                    <Decode>
                        <TranslatedText xml:lang="en">ANGTNS2</TranslatedText>
                    </Decode>
                </CodeListItem>
                <CodeListItem CodedValue="ANGTNSGN" Rank="35">
                    <Decode>
                        <TranslatedText xml:lang="en">ANGTNSGN</TranslatedText>
                    </Decode>
                </CodeListItem>
                <CodeListItem CodedValue="ANIONG" Rank="36">
                    <Decode>
                        <TranslatedText xml:lang="en">ANIONG</TranslatedText>
                    </Decode>
                </CodeListItem>
                <CodeListItem CodedValue="ANISO" Rank="37">
                    <Decode>
                        <TranslatedText xml:lang="en">ANISO</TranslatedText>
                    </Decode>
                </CodeListItem>
                <CodeListItem CodedValue="ANP" Rank="38">
                    <Decode>
                        <TranslatedText xml:lang="en">ANP</TranslatedText>
                    </Decode>
                </CodeListItem>
                <CodeListItem CodedValue="ANTHRM" Rank="39">
                    <Decode>
                        <TranslatedText xml:lang="en">ANTHRM</TranslatedText>
                    </Decode>
                </CodeListItem>
                <CodeListItem CodedValue="ANTHRMAG" Rank="40">
                    <Decode>
                        <TranslatedText xml:lang="en">ANTHRMAG</TranslatedText>
                    </Decode>
                </CodeListItem>
                <CodeListItem CodedValue="ANTIDPRS" Rank="41">
                    <Decode>
                        <TranslatedText xml:lang="en">ANTIDPRS</TranslatedText>
                    </Decode>
                </CodeListItem>
                <CodeListItem CodedValue="APOA1" Rank="42">
                    <Decode>
                        <TranslatedText xml:lang="en">APOA1</TranslatedText>
                    </Decode>
                </CodeListItem>
                <CodeListItem CodedValue="APOA2" Rank="43">
                    <Decode>
                        <TranslatedText xml:lang="en">APOA2</TranslatedText>
                    </Decode>
                </CodeListItem>
                <CodeListItem CodedValue="APOB" Rank="44">
                    <Decode>
                        <TranslatedText xml:lang="en">APOB</TranslatedText>
                    </Decode>
                </CodeListItem>
                <CodeListItem CodedValue="APOC3" Rank="45">
                    <Decode>
                        <TranslatedText xml:lang="en">APOC3</TranslatedText>
                    </Decode>
                </CodeListItem>
                <CodeListItem CodedValue="APOE" Rank="46">
                    <Decode>
                        <TranslatedText xml:lang="en">APOE</TranslatedText>
                    </Decode>
                </CodeListItem>
                <CodeListItem CodedValue="APOH" Rank="47">
                    <Decode>
                        <TranslatedText xml:lang="en">APOH</TranslatedText>
                    </Decode>
                </CodeListItem>
                <CodeListItem CodedValue="APPEAR" Rank="48">
                    <Decode>
                        <TranslatedText xml:lang="en">APPEAR</TranslatedText>
                    </Decode>
                </CodeListItem>
                <CodeListItem CodedValue="APTT" Rank="49">
                    <Decode>
                        <TranslatedText xml:lang="en">APTT</TranslatedText>
                    </Decode>
                </CodeListItem>
                <CodeListItem CodedValue="ASCAB" Rank="50">
                    <Decode>
                        <TranslatedText xml:lang="en">ASCAB</TranslatedText>
                    </Decode>
                </CodeListItem>
                <CodeListItem CodedValue="AST" Rank="51">
                    <Decode>
                        <TranslatedText xml:lang="en">AST</TranslatedText>
                    </Decode>
                </CodeListItem>
                <CodeListItem CodedValue="ASTAG" Rank="52">
                    <Decode>
                        <TranslatedText xml:lang="en">ASTAG</TranslatedText>
                    </Decode>
                </CodeListItem>
                <CodeListItem CodedValue="AUERRODS" Rank="53">
                    <Decode>
                        <TranslatedText xml:lang="en">AUERRODS</TranslatedText>
                    </Decode>
                </CodeListItem>
                <CodeListItem CodedValue="B2GLYAB" Rank="54">
                    <Decode>
                        <TranslatedText xml:lang="en">B2GLYAB</TranslatedText>
                    </Decode>
                </CodeListItem>
                <CodeListItem CodedValue="B2MICG" Rank="55">
                    <Decode>
                        <TranslatedText xml:lang="en">B2MICG</TranslatedText>
                    </Decode>
                </CodeListItem>
                <CodeListItem CodedValue="BACT" Rank="56">
                    <Decode>
                        <TranslatedText xml:lang="en">BACT</TranslatedText>
                    </Decode>
                </CodeListItem>
                <CodeListItem CodedValue="BARB" Rank="57">
                    <Decode>
                        <TranslatedText xml:lang="en">BARB</TranslatedText>
                    </Decode>
                </CodeListItem>
                <CodeListItem CodedValue="BASO" Rank="58">
                    <Decode>
                        <TranslatedText xml:lang="en">BASO</TranslatedText>
                    </Decode>
                </CodeListItem>
                <CodeListItem CodedValue="BASOLE" Rank="59">
                    <Decode>
                        <TranslatedText xml:lang="en">BASOLE</TranslatedText>
                    </Decode>
                </CodeListItem>
                <CodeListItem CodedValue="BDNF" Rank="60">
                    <Decode>
                        <TranslatedText xml:lang="en">BDNF</TranslatedText>
                    </Decode>
                </CodeListItem>
                <CodeListItem CodedValue="BICARB" Rank="61">
                    <Decode>
                        <TranslatedText xml:lang="en">BICARB</TranslatedText>
                    </Decode>
                </CodeListItem>
                <CodeListItem CodedValue="BILDIR" Rank="62">
                    <Decode>
                        <TranslatedText xml:lang="en">BILDIR</TranslatedText>
                    </Decode>
                </CodeListItem>
                <CodeListItem CodedValue="BILEAC" Rank="63">
                    <Decode>
                        <TranslatedText xml:lang="en">BILEAC</TranslatedText>
                    </Decode>
                </CodeListItem>
                <CodeListItem CodedValue="BILI" Rank="64">
                    <Decode>
                        <TranslatedText xml:lang="en">BILI</TranslatedText>
                    </Decode>
                </CodeListItem>
                <CodeListItem CodedValue="BILIND" Rank="65">
                    <Decode>
                        <TranslatedText xml:lang="en">BILIND</TranslatedText>
                    </Decode>
                </CodeListItem>
                <CodeListItem CodedValue="BITECE" Rank="66">
                    <Decode>
                        <TranslatedText xml:lang="en">BITECE</TranslatedText>
                    </Decode>
                </CodeListItem>
                <CodeListItem CodedValue="BLAST" Rank="67">
                    <Decode>
                        <TranslatedText xml:lang="en">BLAST</TranslatedText>
                    </Decode>
                </CodeListItem>
                <CodeListItem CodedValue="BLASTLE" Rank="68">
                    <Decode>
                        <TranslatedText xml:lang="en">BLASTLE</TranslatedText>
                    </Decode>
                </CodeListItem>
                <CodeListItem CodedValue="BLASTLM" Rank="69">
                    <Decode>
                        <TranslatedText xml:lang="en">BLASTLM</TranslatedText>
                    </Decode>
                </CodeListItem>
                <CodeListItem CodedValue="BLSTLMLY" Rank="70">
                    <Decode>
                        <TranslatedText xml:lang="en">BLSTLMLY</TranslatedText>
                    </Decode>
                </CodeListItem>
                <CodeListItem CodedValue="BNP" Rank="71">
                    <Decode>
                        <TranslatedText xml:lang="en">BNP</TranslatedText>
                    </Decode>
                </CodeListItem>
                <CodeListItem CodedValue="BNPPRO" Rank="72">
                    <Decode>
                        <TranslatedText xml:lang="en">BNPPRO</TranslatedText>
                    </Decode>
                </CodeListItem>
                <CodeListItem CodedValue="BNZDZPN" Rank="73">
                    <Decode>
                        <TranslatedText xml:lang="en">BNZDZPN</TranslatedText>
                    </Decode>
                </CodeListItem>
                <CodeListItem CodedValue="BTECERBC" Rank="74">
                    <Decode>
                        <TranslatedText xml:lang="en">BTECERBC</TranslatedText>
                    </Decode>
                </CodeListItem>
                <CodeListItem CodedValue="BUN" Rank="75">
                    <Decode>
                        <TranslatedText xml:lang="en">BUN</TranslatedText>
                    </Decode>
                </CodeListItem>
                <CodeListItem CodedValue="BUNCREAT" Rank="76">
                    <Decode>
                        <TranslatedText xml:lang="en">BUNCREAT</TranslatedText>
                    </Decode>
                </CodeListItem>
                <CodeListItem CodedValue="BURRCE" Rank="77">
                    <Decode>
                        <TranslatedText xml:lang="en">BURRCE</TranslatedText>
                    </Decode>
                </CodeListItem>
                <CodeListItem CodedValue="C1QAB" Rank="78">
                    <Decode>
                        <TranslatedText xml:lang="en">C1QAB</TranslatedText>
                    </Decode>
                </CodeListItem>
                <CodeListItem CodedValue="C3" Rank="79">
                    <Decode>
                        <TranslatedText xml:lang="en">C3</TranslatedText>
                    </Decode>
                </CodeListItem>
                <CodeListItem CodedValue="C3A" Rank="80">
                    <Decode>
                        <TranslatedText xml:lang="en">C3A</TranslatedText>
                    </Decode>
                </CodeListItem>
                <CodeListItem CodedValue="C3B" Rank="81">
                    <Decode>
                        <TranslatedText xml:lang="en">C3B</TranslatedText>
                    </Decode>
                </CodeListItem>
                <CodeListItem CodedValue="C4" Rank="82">
                    <Decode>
                        <TranslatedText xml:lang="en">C4</TranslatedText>
                    </Decode>
                </CodeListItem>
                <CodeListItem CodedValue="C4A" Rank="83">
                    <Decode>
                        <TranslatedText xml:lang="en">C4A</TranslatedText>
                    </Decode>
                </CodeListItem>
                <CodeListItem CodedValue="C5A" Rank="84">
                    <Decode>
                        <TranslatedText xml:lang="en">C5A</TranslatedText>
                    </Decode>
                </CodeListItem>
                <CodeListItem CodedValue="CA" Rank="85">
                    <Decode>
                        <TranslatedText xml:lang="en">CA</TranslatedText>
                    </Decode>
                </CodeListItem>
                <CodeListItem CodedValue="CA125AG" Rank="86">
                    <Decode>
                        <TranslatedText xml:lang="en">CA125AG</TranslatedText>
                    </Decode>
                </CodeListItem>
                <CodeListItem CodedValue="CA19_9AG" Rank="87">
                    <Decode>
                        <TranslatedText xml:lang="en">CA19_9AG</TranslatedText>
                    </Decode>
                </CodeListItem>
                <CodeListItem CodedValue="CABOT" Rank="88">
                    <Decode>
                        <TranslatedText xml:lang="en">CABOT</TranslatedText>
                    </Decode>
                </CodeListItem>
                <CodeListItem CodedValue="CACREAT" Rank="89">
                    <Decode>
                        <TranslatedText xml:lang="en">CACREAT</TranslatedText>
                    </Decode>
                </CodeListItem>
                <CodeListItem CodedValue="CAION" Rank="90">
                    <Decode>
                        <TranslatedText xml:lang="en">CAION</TranslatedText>
                    </Decode>
                </CodeListItem>
                <CodeListItem CodedValue="CALPRO" Rank="91">
                    <Decode>
                        <TranslatedText xml:lang="en">CALPRO</TranslatedText>
                    </Decode>
                </CodeListItem>
                <CodeListItem CodedValue="CANNAB" Rank="92">
                    <Decode>
                        <TranslatedText xml:lang="en">CANNAB</TranslatedText>
                    </Decode>
                </CodeListItem>
                <CodeListItem CodedValue="CARNIT" Rank="93">
                    <Decode>
                        <TranslatedText xml:lang="en">CARNIT</TranslatedText>
                    </Decode>
                </CodeListItem>
                <CodeListItem CodedValue="CARNITF" Rank="94">
                    <Decode>
                        <TranslatedText xml:lang="en">CARNITF</TranslatedText>
                    </Decode>
                </CodeListItem>
                <CodeListItem CodedValue="CASTS" Rank="95">
                    <Decode>
                        <TranslatedText xml:lang="en">CASTS</TranslatedText>
                    </Decode>
                </CodeListItem>
                <CodeListItem CodedValue="CBB" Rank="96">
                    <Decode>
                        <TranslatedText xml:lang="en">CBB</TranslatedText>
                    </Decode>
                </CodeListItem>
                <CodeListItem CodedValue="CCK" Rank="97">
                    <Decode>
                        <TranslatedText xml:lang="en">CCK</TranslatedText>
                    </Decode>
                </CodeListItem>
                <CodeListItem CodedValue="CD19" Rank="98">
                    <Decode>
                        <TranslatedText xml:lang="en">CD19</TranslatedText>
                    </Decode>
                </CodeListItem>
                <CodeListItem CodedValue="CD19LY" Rank="99">
                    <Decode>
                        <TranslatedText xml:lang="en">CD19LY</TranslatedText>
                    </Decode>
                </CodeListItem>
                <CodeListItem CodedValue="CD3" Rank="100">
                    <Decode>
                        <TranslatedText xml:lang="en">CD3</TranslatedText>
                    </Decode>
                </CodeListItem>
                <CodeListItem CodedValue="CD3LY" Rank="101">
                    <Decode>
                        <TranslatedText xml:lang="en">CD3LY</TranslatedText>
                    </Decode>
                </CodeListItem>
                <CodeListItem CodedValue="CD4" Rank="102">
                    <Decode>
                        <TranslatedText xml:lang="en">CD4</TranslatedText>
                    </Decode>
                </CodeListItem>
                <CodeListItem CodedValue="CD40" Rank="103">
                    <Decode>
                        <TranslatedText xml:lang="en">CD40</TranslatedText>
                    </Decode>
                </CodeListItem>
                <CodeListItem CodedValue="CD40L" Rank="104">
                    <Decode>
                        <TranslatedText xml:lang="en">CD40L</TranslatedText>
                    </Decode>
                </CodeListItem>
                <CodeListItem CodedValue="CD4CD8" Rank="105">
                    <Decode>
                        <TranslatedText xml:lang="en">CD4CD8</TranslatedText>
                    </Decode>
                </CodeListItem>
                <CodeListItem CodedValue="CD4LY" Rank="106">
                    <Decode>
                        <TranslatedText xml:lang="en">CD4LY</TranslatedText>
                    </Decode>
                </CodeListItem>
                <CodeListItem CodedValue="CD8" Rank="107">
                    <Decode>
                        <TranslatedText xml:lang="en">CD8</TranslatedText>
                    </Decode>
                </CodeListItem>
                <CodeListItem CodedValue="CD8LY" Rank="108">
                    <Decode>
                        <TranslatedText xml:lang="en">CD8LY</TranslatedText>
                    </Decode>
                </CodeListItem>
                <CodeListItem CodedValue="CEA" Rank="109">
                    <Decode>
                        <TranslatedText xml:lang="en">CEA</TranslatedText>
                    </Decode>
                </CodeListItem>
                <CodeListItem CodedValue="CHOL" Rank="110">
                    <Decode>
                        <TranslatedText xml:lang="en">CHOL</TranslatedText>
                    </Decode>
                </CodeListItem>
                <CodeListItem CodedValue="CHOLHDL" Rank="111">
                    <Decode>
                        <TranslatedText xml:lang="en">CHOLHDL</TranslatedText>
                    </Decode>
                </CodeListItem>
                <CodeListItem CodedValue="CK" Rank="112">
                    <Decode>
                        <TranslatedText xml:lang="en">CK</TranslatedText>
                    </Decode>
                </CodeListItem>
                <CodeListItem CodedValue="CKBB" Rank="113">
                    <Decode>
                        <TranslatedText xml:lang="en">CKBB</TranslatedText>
                    </Decode>
                </CodeListItem>
                <CodeListItem CodedValue="CKBBCK" Rank="114">
                    <Decode>
                        <TranslatedText xml:lang="en">CKBBCK</TranslatedText>
                    </Decode>
                </CodeListItem>
                <CodeListItem CodedValue="CKMB" Rank="115">
                    <Decode>
                        <TranslatedText xml:lang="en">CKMB</TranslatedText>
                    </Decode>
                </CodeListItem>
                <CodeListItem CodedValue="CKMBCK" Rank="116">
                    <Decode>
                        <TranslatedText xml:lang="en">CKMBCK</TranslatedText>
                    </Decode>
                </CodeListItem>
                <CodeListItem CodedValue="CKMM" Rank="117">
                    <Decode>
                        <TranslatedText xml:lang="en">CKMM</TranslatedText>
                    </Decode>
                </CodeListItem>
                <CodeListItem CodedValue="CKMMCK" Rank="118">
                    <Decode>
                        <TranslatedText xml:lang="en">CKMMCK</TranslatedText>
                    </Decode>
                </CodeListItem>
                <CodeListItem CodedValue="CL" Rank="119">
                    <Decode>
                        <TranslatedText xml:lang="en">CL</TranslatedText>
                    </Decode>
                </CodeListItem>
                <CodeListItem CodedValue="CLCREAT" Rank="120">
                    <Decode>
                        <TranslatedText xml:lang="en">CLCREAT</TranslatedText>
                    </Decode>
                </CodeListItem>
                <CodeListItem CodedValue="CLCTONN" Rank="121">
                    <Decode>
                        <TranslatedText xml:lang="en">CLCTONN</TranslatedText>
                    </Decode>
                </CodeListItem>
                <CodeListItem CodedValue="CLCTRIOL" Rank="122">
                    <Decode>
                        <TranslatedText xml:lang="en">CLCTRIOL</TranslatedText>
                    </Decode>
                </CodeListItem>
                <CodeListItem CodedValue="CO2" Rank="123">
                    <Decode>
                        <TranslatedText xml:lang="en">CO2</TranslatedText>
                    </Decode>
                </CodeListItem>
                <CodeListItem CodedValue="COCAINE" Rank="124">
                    <Decode>
                        <TranslatedText xml:lang="en">COCAINE</TranslatedText>
                    </Decode>
                </CodeListItem>
                <CodeListItem CodedValue="CODEINE" Rank="125">
                    <Decode>
                        <TranslatedText xml:lang="en">CODEINE</TranslatedText>
                    </Decode>
                </CodeListItem>
                <CodeListItem CodedValue="COLOR" Rank="126">
                    <Decode>
                        <TranslatedText xml:lang="en">COLOR</TranslatedText>
                    </Decode>
                </CodeListItem>
                <CodeListItem CodedValue="CORTISOL" Rank="127">
                    <Decode>
                        <TranslatedText xml:lang="en">CORTISOL</TranslatedText>
                    </Decode>
                </CodeListItem>
                <CodeListItem CodedValue="CPEPTIDE" Rank="128">
                    <Decode>
                        <TranslatedText xml:lang="en">CPEPTIDE</TranslatedText>
                    </Decode>
                </CodeListItem>
                <CodeListItem CodedValue="CREAT" Rank="129">
                    <Decode>
                        <TranslatedText xml:lang="en">CREAT</TranslatedText>
                    </Decode>
                </CodeListItem>
                <CodeListItem CodedValue="CREATCLR" Rank="130">
                    <Decode>
                        <TranslatedText xml:lang="en">CREATCLR</TranslatedText>
                    </Decode>
                </CodeListItem>
                <CodeListItem CodedValue="CRENCE" Rank="131">
                    <Decode>
                        <TranslatedText xml:lang="en">CRENCE</TranslatedText>
                    </Decode>
                </CodeListItem>
                <CodeListItem CodedValue="CRH" Rank="132">
                    <Decode>
                        <TranslatedText xml:lang="en">CRH</TranslatedText>
                    </Decode>
                </CodeListItem>
                <CodeListItem CodedValue="CRP" Rank="133">
                    <Decode>
                        <TranslatedText xml:lang="en">CRP</TranslatedText>
                    </Decode>
                </CodeListItem>
                <CodeListItem CodedValue="CRTRONE" Rank="134">
                    <Decode>
                        <TranslatedText xml:lang="en">CRTRONE</TranslatedText>
                    </Decode>
                </CodeListItem>
                <CodeListItem CodedValue="CRYSTALS" Rank="135">
                    <Decode>
                        <TranslatedText xml:lang="en">CRYSTALS</TranslatedText>
                    </Decode>
                </CodeListItem>
                <CodeListItem CodedValue="CSBACT" Rank="136">
                    <Decode>
                        <TranslatedText xml:lang="en">CSBACT</TranslatedText>
                    </Decode>
                </CodeListItem>
                <CodeListItem CodedValue="CSCELL" Rank="137">
                    <Decode>
                        <TranslatedText xml:lang="en">CSCELL</TranslatedText>
                    </Decode>
                </CodeListItem>
                <CodeListItem CodedValue="CSEPI" Rank="138">
                    <Decode>
                        <TranslatedText xml:lang="en">CSEPI</TranslatedText>
                    </Decode>
                </CodeListItem>
                <CodeListItem CodedValue="CSFAT" Rank="139">
                    <Decode>
                        <TranslatedText xml:lang="en">CSFAT</TranslatedText>
                    </Decode>
                </CodeListItem>
                <CodeListItem CodedValue="CSGRAN" Rank="140">
                    <Decode>
                        <TranslatedText xml:lang="en">CSGRAN</TranslatedText>
                    </Decode>
                </CodeListItem>
                <CodeListItem CodedValue="CSGRANC" Rank="141">
                    <Decode>
                        <TranslatedText xml:lang="en">CSGRANC</TranslatedText>
                    </Decode>
                </CodeListItem>
                <CodeListItem CodedValue="CSGRANF" Rank="142">
                    <Decode>
                        <TranslatedText xml:lang="en">CSGRANF</TranslatedText>
                    </Decode>
                </CodeListItem>
                <CodeListItem CodedValue="CSHYAL" Rank="143">
                    <Decode>
                        <TranslatedText xml:lang="en">CSHYAL</TranslatedText>
                    </Decode>
                </CodeListItem>
                <CodeListItem CodedValue="CSMIX" Rank="144">
                    <Decode>
                        <TranslatedText xml:lang="en">CSMIX</TranslatedText>
                    </Decode>
                </CodeListItem>
                <CodeListItem CodedValue="CSRBC" Rank="145">
                    <Decode>
                        <TranslatedText xml:lang="en">CSRBC</TranslatedText>
                    </Decode>
                </CodeListItem>
                <CodeListItem CodedValue="CSUNCLA" Rank="146">
                    <Decode>
                        <TranslatedText xml:lang="en">CSUNCLA</TranslatedText>
                    </Decode>
                </CodeListItem>
                <CodeListItem CodedValue="CSWAX" Rank="147">
                    <Decode>
                        <TranslatedText xml:lang="en">CSWAX</TranslatedText>
                    </Decode>
                </CodeListItem>
                <CodeListItem CodedValue="CSWBC" Rank="148">
                    <Decode>
                        <TranslatedText xml:lang="en">CSWBC</TranslatedText>
                    </Decode>
                </CodeListItem>
                <CodeListItem CodedValue="CTOT" Rank="149">
                    <Decode>
                        <TranslatedText xml:lang="en">CTOT</TranslatedText>
                    </Decode>
                </CodeListItem>
                <CodeListItem CodedValue="CTXI" Rank="150">
                    <Decode>
                        <TranslatedText xml:lang="en">CTXI</TranslatedText>
                    </Decode>
                </CodeListItem>
                <CodeListItem CodedValue="CTXII" Rank="151">
                    <Decode>
                        <TranslatedText xml:lang="en">CTXII</TranslatedText>
                    </Decode>
                </CodeListItem>
                <CodeListItem CodedValue="CYACIDU" Rank="152">
                    <Decode>
                        <TranslatedText xml:lang="en">CYACIDU</TranslatedText>
                    </Decode>
                </CodeListItem>
                <CodeListItem CodedValue="CYAMMBIU" Rank="153">
                    <Decode>
                        <TranslatedText xml:lang="en">CYAMMBIU</TranslatedText>
                    </Decode>
                </CodeListItem>
                <CodeListItem CodedValue="CYAMMOX" Rank="154">
                    <Decode>
                        <TranslatedText xml:lang="en">CYAMMOX</TranslatedText>
                    </Decode>
                </CodeListItem>
                <CodeListItem CodedValue="CYAMORPH" Rank="155">
                    <Decode>
                        <TranslatedText xml:lang="en">CYAMORPH</TranslatedText>
                    </Decode>
                </CodeListItem>
                <CodeListItem CodedValue="CYBILI" Rank="156">
                    <Decode>
                        <TranslatedText xml:lang="en">CYBILI</TranslatedText>
                    </Decode>
                </CodeListItem>
                <CodeListItem CodedValue="CYCACAR" Rank="157">
                    <Decode>
                        <TranslatedText xml:lang="en">CYCACAR</TranslatedText>
                    </Decode>
                </CodeListItem>
                <CodeListItem CodedValue="CYCAOXA" Rank="158">
                    <Decode>
                        <TranslatedText xml:lang="en">CYCAOXA</TranslatedText>
                    </Decode>
                </CodeListItem>
                <CodeListItem CodedValue="CYCAPHOS" Rank="159">
                    <Decode>
                        <TranslatedText xml:lang="en">CYCAPHOS</TranslatedText>
                    </Decode>
                </CodeListItem>
                <CodeListItem CodedValue="CYCHOL" Rank="160">
                    <Decode>
                        <TranslatedText xml:lang="en">CYCHOL</TranslatedText>
                    </Decode>
                </CodeListItem>
                <CodeListItem CodedValue="CYCYSTIN" Rank="161">
                    <Decode>
                        <TranslatedText xml:lang="en">CYCYSTIN</TranslatedText>
                    </Decode>
                </CodeListItem>
                <CodeListItem CodedValue="CYHIPPAC" Rank="162">
                    <Decode>
                        <TranslatedText xml:lang="en">CYHIPPAC</TranslatedText>
                    </Decode>
                </CodeListItem>
                <CodeListItem CodedValue="CYLEUC" Rank="163">
                    <Decode>
                        <TranslatedText xml:lang="en">CYLEUC</TranslatedText>
                    </Decode>
                </CodeListItem>
                <CodeListItem CodedValue="CYMSU" Rank="164">
                    <Decode>
                        <TranslatedText xml:lang="en">CYMSU</TranslatedText>
                    </Decode>
                </CodeListItem>
                <CodeListItem CodedValue="CYSTARCH" Rank="165">
                    <Decode>
                        <TranslatedText xml:lang="en">CYSTARCH</TranslatedText>
                    </Decode>
                </CodeListItem>
                <CodeListItem CodedValue="CYSULFA" Rank="166">
                    <Decode>
                        <TranslatedText xml:lang="en">CYSULFA</TranslatedText>
                    </Decode>
                </CodeListItem>
                <CodeListItem CodedValue="CYTRPHOS" Rank="167">
                    <Decode>
                        <TranslatedText xml:lang="en">CYTRPHOS</TranslatedText>
                    </Decode>
                </CodeListItem>
                <CodeListItem CodedValue="CYTYRO" Rank="168">
                    <Decode>
                        <TranslatedText xml:lang="en">CYTYRO</TranslatedText>
                    </Decode>
                </CodeListItem>
                <CodeListItem CodedValue="CYUNCLA" Rank="169">
                    <Decode>
                        <TranslatedText xml:lang="en">CYUNCLA</TranslatedText>
                    </Decode>
                </CodeListItem>
                <CodeListItem CodedValue="CYURIAC" Rank="170">
                    <Decode>
                        <TranslatedText xml:lang="en">CYURIAC</TranslatedText>
                    </Decode>
                </CodeListItem>
                <CodeListItem CodedValue="DDIMER" Rank="171">
                    <Decode>
                        <TranslatedText xml:lang="en">DDIMER</TranslatedText>
                    </Decode>
                </CodeListItem>
                <CodeListItem CodedValue="DHEA" Rank="172">
                    <Decode>
                        <TranslatedText xml:lang="en">DHEA</TranslatedText>
                    </Decode>
                </CodeListItem>
                <CodeListItem CodedValue="DHT" Rank="173">
                    <Decode>
                        <TranslatedText xml:lang="en">DHT</TranslatedText>
                    </Decode>
                </CodeListItem>
                <CodeListItem CodedValue="DIHYDCDN" Rank="174">
                    <Decode>
                        <TranslatedText xml:lang="en">DIHYDCDN</TranslatedText>
                    </Decode>
                </CodeListItem>
                <CodeListItem CodedValue="DNAAB" Rank="175">
                    <Decode>
                        <TranslatedText xml:lang="en">DNAAB</TranslatedText>
                    </Decode>
                </CodeListItem>
                <CodeListItem CodedValue="DOHLE" Rank="176">
                    <Decode>
                        <TranslatedText xml:lang="en">DOHLE</TranslatedText>
                    </Decode>
                </CodeListItem>
                <CodeListItem CodedValue="DOPAMINE" Rank="177">
                    <Decode>
                        <TranslatedText xml:lang="en">DOPAMINE</TranslatedText>
                    </Decode>
                </CodeListItem>
                <CodeListItem CodedValue="DPD" Rank="178">
                    <Decode>
                        <TranslatedText xml:lang="en">DPD</TranslatedText>
                    </Decode>
                </CodeListItem>
                <CodeListItem CodedValue="DPDCREAT" Rank="179">
                    <Decode>
                        <TranslatedText xml:lang="en">DPDCREAT</TranslatedText>
                    </Decode>
                </CodeListItem>
                <CodeListItem CodedValue="EGF" Rank="180">
                    <Decode>
                        <TranslatedText xml:lang="en">EGF</TranslatedText>
                    </Decode>
                </CodeListItem>
                <CodeListItem CodedValue="ELA1" Rank="181">
                    <Decode>
                        <TranslatedText xml:lang="en">ELA1</TranslatedText>
                    </Decode>
                </CodeListItem>
                <CodeListItem CodedValue="ELA1PMN" Rank="182">
                    <Decode>
                        <TranslatedText xml:lang="en">ELA1PMN</TranslatedText>
                    </Decode>
                </CodeListItem>
                <CodeListItem CodedValue="ELA2" Rank="183">
                    <Decode>
                        <TranslatedText xml:lang="en">ELA2</TranslatedText>
                    </Decode>
                </CodeListItem>
                <CodeListItem CodedValue="ELA2PMN" Rank="184">
                    <Decode>
                        <TranslatedText xml:lang="en">ELA2PMN</TranslatedText>
                    </Decode>
                </CodeListItem>
                <CodeListItem CodedValue="ELLIPCY" Rank="185">
                    <Decode>
                        <TranslatedText xml:lang="en">ELLIPCY</TranslatedText>
                    </Decode>
                </CodeListItem>
                <CodeListItem CodedValue="ENA78" Rank="186">
                    <Decode>
                        <TranslatedText xml:lang="en">ENA78</TranslatedText>
                    </Decode>
                </CodeListItem>
                <CodeListItem CodedValue="ENDOTH1" Rank="187">
                    <Decode>
                        <TranslatedText xml:lang="en">ENDOTH1</TranslatedText>
                    </Decode>
                </CodeListItem>
                <CodeListItem CodedValue="ENRAGE" Rank="188">
                    <Decode>
                        <TranslatedText xml:lang="en">ENRAGE</TranslatedText>
                    </Decode>
                </CodeListItem>
                <CodeListItem CodedValue="EOS" Rank="189">
                    <Decode>
                        <TranslatedText xml:lang="en">EOS</TranslatedText>
                    </Decode>
                </CodeListItem>
                <CodeListItem CodedValue="EOSLE" Rank="190">
                    <Decode>
                        <TranslatedText xml:lang="en">EOSLE</TranslatedText>
                    </Decode>
                </CodeListItem>
                <CodeListItem CodedValue="EOSMM" Rank="191">
                    <Decode>
                        <TranslatedText xml:lang="en">EOSMM</TranslatedText>
                    </Decode>
                </CodeListItem>
                <CodeListItem CodedValue="EOSMYL" Rank="192">
                    <Decode>
                        <TranslatedText xml:lang="en">EOSMYL</TranslatedText>
                    </Decode>
                </CodeListItem>
                <CodeListItem CodedValue="EOTAXIN1" Rank="193">
                    <Decode>
                        <TranslatedText xml:lang="en">EOTAXIN1</TranslatedText>
                    </Decode>
                </CodeListItem>
                <CodeListItem CodedValue="EOTAXIN2" Rank="194">
                    <Decode>
                        <TranslatedText xml:lang="en">EOTAXIN2</TranslatedText>
                    </Decode>
                </CodeListItem>
                <CodeListItem CodedValue="EOTAXIN3" Rank="195">
                    <Decode>
                        <TranslatedText xml:lang="en">EOTAXIN3</TranslatedText>
                    </Decode>
                </CodeListItem>
                <CodeListItem CodedValue="EPIC" Rank="196">
                    <Decode>
                        <TranslatedText xml:lang="en">EPIC</TranslatedText>
                    </Decode>
                </CodeListItem>
                <CodeListItem CodedValue="EPIN" Rank="197">
                    <Decode>
                        <TranslatedText xml:lang="en">EPIN</TranslatedText>
                    </Decode>
                </CodeListItem>
                <CodeListItem CodedValue="EPIROCE" Rank="198">
                    <Decode>
                        <TranslatedText xml:lang="en">EPIROCE</TranslatedText>
                    </Decode>
                </CodeListItem>
                <CodeListItem CodedValue="EPISQCE" Rank="199">
                    <Decode>
                        <TranslatedText xml:lang="en">EPISQCE</TranslatedText>
                    </Decode>
                </CodeListItem>
                <CodeListItem CodedValue="EPISQTCE" Rank="200">
                    <Decode>
                        <TranslatedText xml:lang="en">EPISQTCE</TranslatedText>
                    </Decode>
                </CodeListItem>
                <CodeListItem CodedValue="EPITUCE" Rank="201">
                    <Decode>
                        <TranslatedText xml:lang="en">EPITUCE</TranslatedText>
                    </Decode>
                </CodeListItem>
                <CodeListItem CodedValue="EPO" Rank="202">
                    <Decode>
                        <TranslatedText xml:lang="en">EPO</TranslatedText>
                    </Decode>
                </CodeListItem>
                <CodeListItem CodedValue="ESR" Rank="203">
                    <Decode>
                        <TranslatedText xml:lang="en">ESR</TranslatedText>
                    </Decode>
                </CodeListItem>
                <CodeListItem CodedValue="ESTRDIOL" Rank="204">
                    <Decode>
                        <TranslatedText xml:lang="en">ESTRDIOL</TranslatedText>
                    </Decode>
                </CodeListItem>
                <CodeListItem CodedValue="ESTRIOL" Rank="205">
                    <Decode>
                        <TranslatedText xml:lang="en">ESTRIOL</TranslatedText>
                    </Decode>
                </CodeListItem>
                <CodeListItem CodedValue="ESTRIOLF" Rank="206">
                    <Decode>
                        <TranslatedText xml:lang="en">ESTRIOLF</TranslatedText>
                    </Decode>
                </CodeListItem>
                <CodeListItem CodedValue="ESTRONE" Rank="207">
                    <Decode>
                        <TranslatedText xml:lang="en">ESTRONE</TranslatedText>
                    </Decode>
                </CodeListItem>
                <CodeListItem CodedValue="ETHANOL" Rank="208">
                    <Decode>
                        <TranslatedText xml:lang="en">ETHANOL</TranslatedText>
                    </Decode>
                </CodeListItem>
                <CodeListItem CodedValue="FABP1" Rank="209">
                    <Decode>
                        <TranslatedText xml:lang="en">FABP1</TranslatedText>
                    </Decode>
                </CodeListItem>
                <CodeListItem CodedValue="FACTIII" Rank="210">
                    <Decode>
                        <TranslatedText xml:lang="en">FACTIII</TranslatedText>
                    </Decode>
                </CodeListItem>
                <CodeListItem CodedValue="FACTVII" Rank="211">
                    <Decode>
                        <TranslatedText xml:lang="en">FACTVII</TranslatedText>
                    </Decode>
                </CodeListItem>
                <CodeListItem CodedValue="FACTVIII" Rank="212">
                    <Decode>
                        <TranslatedText xml:lang="en">FACTVIII</TranslatedText>
                    </Decode>
                </CodeListItem>
                <CodeListItem CodedValue="FATACFR" Rank="213">
                    <Decode>
                        <TranslatedText xml:lang="en">FATACFR</TranslatedText>
                    </Decode>
                </CodeListItem>
                <CodeListItem CodedValue="FATACFRS" Rank="214">
                    <Decode>
                        <TranslatedText xml:lang="en">FATACFRS</TranslatedText>
                    </Decode>
                </CodeListItem>
                <CodeListItem CodedValue="FATACFRU" Rank="215">
                    <Decode>
                        <TranslatedText xml:lang="en">FATACFRU</TranslatedText>
                    </Decode>
                </CodeListItem>
                <CodeListItem CodedValue="FATBODOV" Rank="216">
                    <Decode>
                        <TranslatedText xml:lang="en">FATBODOV</TranslatedText>
                    </Decode>
                </CodeListItem>
                <CodeListItem CodedValue="FDP" Rank="217">
                    <Decode>
                        <TranslatedText xml:lang="en">FDP</TranslatedText>
                    </Decode>
                </CodeListItem>
                <CodeListItem CodedValue="FERRITIN" Rank="218">
                    <Decode>
                        <TranslatedText xml:lang="en">FERRITIN</TranslatedText>
                    </Decode>
                </CodeListItem>
                <CodeListItem CodedValue="FGFBF" Rank="219">
                    <Decode>
                        <TranslatedText xml:lang="en">FGFBF</TranslatedText>
                    </Decode>
                </CodeListItem>
                <CodeListItem CodedValue="FIBRINO" Rank="220">
                    <Decode>
                        <TranslatedText xml:lang="en">FIBRINO</TranslatedText>
                    </Decode>
                </CodeListItem>
                <CodeListItem CodedValue="FRUCT" Rank="221">
                    <Decode>
                        <TranslatedText xml:lang="en">FRUCT</TranslatedText>
                    </Decode>
                </CodeListItem>
                <CodeListItem CodedValue="FSH" Rank="222">
                    <Decode>
                        <TranslatedText xml:lang="en">FSH</TranslatedText>
                    </Decode>
                </CodeListItem>
                <CodeListItem CodedValue="G6PD" Rank="223">
                    <Decode>
                        <TranslatedText xml:lang="en">G6PD</TranslatedText>
                    </Decode>
                </CodeListItem>
                <CodeListItem CodedValue="GAD1" Rank="224">
                    <Decode>
                        <TranslatedText xml:lang="en">GAD1</TranslatedText>
                    </Decode>
                </CodeListItem>
                <CodeListItem CodedValue="GAD2" Rank="225">
                    <Decode>
                        <TranslatedText xml:lang="en">GAD2</TranslatedText>
                    </Decode>
                </CodeListItem>
                <CodeListItem CodedValue="GAD2AB" Rank="226">
                    <Decode>
                        <TranslatedText xml:lang="en">GAD2AB</TranslatedText>
                    </Decode>
                </CodeListItem>
                <CodeListItem CodedValue="GALANIN" Rank="227">
                    <Decode>
                        <TranslatedText xml:lang="en">GALANIN</TranslatedText>
                    </Decode>
                </CodeListItem>
                <CodeListItem CodedValue="GASTRIN" Rank="228">
                    <Decode>
                        <TranslatedText xml:lang="en">GASTRIN</TranslatedText>
                    </Decode>
                </CodeListItem>
                <CodeListItem CodedValue="GCSF" Rank="229">
                    <Decode>
                        <TranslatedText xml:lang="en">GCSF</TranslatedText>
                    </Decode>
                </CodeListItem>
                <CodeListItem CodedValue="GGT" Rank="230">
                    <Decode>
                        <TranslatedText xml:lang="en">GGT</TranslatedText>
                    </Decode>
                </CodeListItem>
                <CodeListItem CodedValue="GGTCREAT" Rank="231">
                    <Decode>
                        <TranslatedText xml:lang="en">GGTCREAT</TranslatedText>
                    </Decode>
                </CodeListItem>
                <CodeListItem CodedValue="GLDH" Rank="232">
                    <Decode>
                        <TranslatedText xml:lang="en">GLDH</TranslatedText>
                    </Decode>
                </CodeListItem>
                <CodeListItem CodedValue="GLOBUL" Rank="233">
                    <Decode>
                        <TranslatedText xml:lang="en">GLOBUL</TranslatedText>
                    </Decode>
                </CodeListItem>
                <CodeListItem CodedValue="GLP1" Rank="234">
                    <Decode>
                        <TranslatedText xml:lang="en">GLP1</TranslatedText>
                    </Decode>
                </CodeListItem>
                <CodeListItem CodedValue="GLP1AC" Rank="235">
                    <Decode>
                        <TranslatedText xml:lang="en">GLP1AC</TranslatedText>
                    </Decode>
                </CodeListItem>
                <CodeListItem CodedValue="GLUC" Rank="236">
                    <Decode>
                        <TranslatedText xml:lang="en">GLUC</TranslatedText>
                    </Decode>
                </CodeListItem>
                <CodeListItem CodedValue="GLUCAGON" Rank="237">
                    <Decode>
                        <TranslatedText xml:lang="en">GLUCAGON</TranslatedText>
                    </Decode>
                </CodeListItem>
                <CodeListItem CodedValue="GLUCCRT" Rank="238">
                    <Decode>
                        <TranslatedText xml:lang="en">GLUCCRT</TranslatedText>
                    </Decode>
                </CodeListItem>
                <CodeListItem CodedValue="GLUTAM" Rank="239">
                    <Decode>
                        <TranslatedText xml:lang="en">GLUTAM</TranslatedText>
                    </Decode>
                </CodeListItem>
                <CodeListItem CodedValue="GMCSF" Rank="240">
                    <Decode>
                        <TranslatedText xml:lang="en">GMCSF</TranslatedText>
                    </Decode>
                </CodeListItem>
                <CodeListItem CodedValue="GNRH" Rank="241">
                    <Decode>
                        <TranslatedText xml:lang="en">GNRH</TranslatedText>
                    </Decode>
                </CodeListItem>
                <CodeListItem CodedValue="GOLD" Rank="242">
                    <Decode>
                        <TranslatedText xml:lang="en">GOLD</TranslatedText>
                    </Decode>
                </CodeListItem>
                <CodeListItem CodedValue="GRWHIH" Rank="243">
                    <Decode>
                        <TranslatedText xml:lang="en">GRWHIH</TranslatedText>
                    </Decode>
                </CodeListItem>
                <CodeListItem CodedValue="GRWHRH" Rank="244">
                    <Decode>
                        <TranslatedText xml:lang="en">GRWHRH</TranslatedText>
                    </Decode>
                </CodeListItem>
                <CodeListItem CodedValue="GST" Rank="245">
                    <Decode>
                        <TranslatedText xml:lang="en">GST</TranslatedText>
                    </Decode>
                </CodeListItem>
                <CodeListItem CodedValue="GSTAL" Rank="246">
                    <Decode>
                        <TranslatedText xml:lang="en">GSTAL</TranslatedText>
                    </Decode>
                </CodeListItem>
                <CodeListItem CodedValue="GSTALCRT" Rank="247">
                    <Decode>
                        <TranslatedText xml:lang="en">GSTALCRT</TranslatedText>
                    </Decode>
                </CodeListItem>
                <CodeListItem CodedValue="GSTCREAT" Rank="248">
                    <Decode>
                        <TranslatedText xml:lang="en">GSTCREAT</TranslatedText>
                    </Decode>
                </CodeListItem>
                <CodeListItem CodedValue="GSTMU" Rank="249">
                    <Decode>
                        <TranslatedText xml:lang="en">GSTMU</TranslatedText>
                    </Decode>
                </CodeListItem>
                <CodeListItem CodedValue="GSTMUCRT" Rank="250">
                    <Decode>
                        <TranslatedText xml:lang="en">GSTMUCRT</TranslatedText>
                    </Decode>
                </CodeListItem>
                <CodeListItem CodedValue="GSTPI" Rank="251">
                    <Decode>
                        <TranslatedText xml:lang="en">GSTPI</TranslatedText>
                    </Decode>
                </CodeListItem>
                <CodeListItem CodedValue="GSTTH" Rank="252">
                    <Decode>
                        <TranslatedText xml:lang="en">GSTTH</TranslatedText>
                    </Decode>
                </CodeListItem>
                <CodeListItem CodedValue="GUSA" Rank="253">
                    <Decode>
                        <TranslatedText xml:lang="en">GUSA</TranslatedText>
                    </Decode>
                </CodeListItem>
                <CodeListItem CodedValue="GUSB" Rank="254">
                    <Decode>
                        <TranslatedText xml:lang="en">GUSB</TranslatedText>
                    </Decode>
                </CodeListItem>
                <CodeListItem CodedValue="HAIRYCE" Rank="255">
                    <Decode>
                        <TranslatedText xml:lang="en">HAIRYCE</TranslatedText>
                    </Decode>
                </CodeListItem>
                <CodeListItem CodedValue="HAPTOG" Rank="256">
                    <Decode>
                        <TranslatedText xml:lang="en">HAPTOG</TranslatedText>
                    </Decode>
                </CodeListItem>
                <CodeListItem CodedValue="HASAB" Rank="257">
                    <Decode>
                        <TranslatedText xml:lang="en">HASAB</TranslatedText>
                    </Decode>
                </CodeListItem>
                <CodeListItem CodedValue="HAVPCR" Rank="258">
                    <Decode>
                        <TranslatedText xml:lang="en">HAVPCR</TranslatedText>
                    </Decode>
                </CodeListItem>
                <CodeListItem CodedValue="HBA1C" Rank="259">
                    <Decode>
                        <TranslatedText xml:lang="en">HBA1C</TranslatedText>
                    </Decode>
                </CodeListItem>
                <CodeListItem CodedValue="HBSAB" Rank="260">
                    <Decode>
                        <TranslatedText xml:lang="en">HBSAB</TranslatedText>
                    </Decode>
                </CodeListItem>
                <CodeListItem CodedValue="HBSAG" Rank="261">
                    <Decode>
                        <TranslatedText xml:lang="en">HBSAG</TranslatedText>
                    </Decode>
                </CodeListItem>
                <CodeListItem CodedValue="HBVPCR" Rank="262">
                    <Decode>
                        <TranslatedText xml:lang="en">HBVPCR</TranslatedText>
                    </Decode>
                </CodeListItem>
                <CodeListItem CodedValue="HCG" Rank="263">
                    <Decode>
                        <TranslatedText xml:lang="en">HCG</TranslatedText>
                    </Decode>
                </CodeListItem>
                <CodeListItem CodedValue="HCSAB" Rank="264">
                    <Decode>
                        <TranslatedText xml:lang="en">HCSAB</TranslatedText>
                    </Decode>
                </CodeListItem>
                <CodeListItem CodedValue="HCT" Rank="265">
                    <Decode>
                        <TranslatedText xml:lang="en">HCT</TranslatedText>
                    </Decode>
                </CodeListItem>
                <CodeListItem CodedValue="HCVPCR" Rank="266">
                    <Decode>
                        <TranslatedText xml:lang="en">HCVPCR</TranslatedText>
                    </Decode>
                </CodeListItem>
                <CodeListItem CodedValue="HDL" Rank="267">
                    <Decode>
                        <TranslatedText xml:lang="en">HDL</TranslatedText>
                    </Decode>
                </CodeListItem>
                <CodeListItem CodedValue="HDL2" Rank="268">
                    <Decode>
                        <TranslatedText xml:lang="en">HDL2</TranslatedText>
                    </Decode>
                </CodeListItem>
                <CodeListItem CodedValue="HDL3" Rank="269">
                    <Decode>
                        <TranslatedText xml:lang="en">HDL3</TranslatedText>
                    </Decode>
                </CodeListItem>
                <CodeListItem CodedValue="HEINZ" Rank="270">
                    <Decode>
                        <TranslatedText xml:lang="en">HEINZ</TranslatedText>
                    </Decode>
                </CodeListItem>
                <CodeListItem CodedValue="HELMETCE" Rank="271">
                    <Decode>
                        <TranslatedText xml:lang="en">HELMETCE</TranslatedText>
                    </Decode>
                </CodeListItem>
                <CodeListItem CodedValue="HGB" Rank="272">
                    <Decode>
                        <TranslatedText xml:lang="en">HGB</TranslatedText>
                    </Decode>
                </CodeListItem>
                <CodeListItem CodedValue="HISTAMIN" Rank="273">
                    <Decode>
                        <TranslatedText xml:lang="en">HISTAMIN</TranslatedText>
                    </Decode>
                </CodeListItem>
                <CodeListItem CodedValue="HIV12AB" Rank="274">
                    <Decode>
                        <TranslatedText xml:lang="en">HIV12AB</TranslatedText>
                    </Decode>
                </CodeListItem>
                <CodeListItem CodedValue="HIV1AB" Rank="275">
                    <Decode>
                        <TranslatedText xml:lang="en">HIV1AB</TranslatedText>
                    </Decode>
                </CodeListItem>
                <CodeListItem CodedValue="HIV2AB" Rank="276">
                    <Decode>
                        <TranslatedText xml:lang="en">HIV2AB</TranslatedText>
                    </Decode>
                </CodeListItem>
                <CodeListItem CodedValue="HIVPCR" Rank="277">
                    <Decode>
                        <TranslatedText xml:lang="en">HIVPCR</TranslatedText>
                    </Decode>
                </CodeListItem>
                <CodeListItem CodedValue="HOMOCY" Rank="278">
                    <Decode>
                        <TranslatedText xml:lang="en">HOMOCY</TranslatedText>
                    </Decode>
                </CodeListItem>
                <CodeListItem CodedValue="HOWJOL" Rank="279">
                    <Decode>
                        <TranslatedText xml:lang="en">HOWJOL</TranslatedText>
                    </Decode>
                </CodeListItem>
                <CodeListItem CodedValue="HPOCROM" Rank="280">
                    <Decode>
                        <TranslatedText xml:lang="en">HPOCROM</TranslatedText>
                    </Decode>
                </CodeListItem>
                <CodeListItem CodedValue="HRYCELY" Rank="281">
                    <Decode>
                        <TranslatedText xml:lang="en">HRYCELY</TranslatedText>
                    </Decode>
                </CodeListItem>
                <CodeListItem CodedValue="HTPHAB" Rank="282">
                    <Decode>
                        <TranslatedText xml:lang="en">HTPHAB</TranslatedText>
                    </Decode>
                </CodeListItem>
                <CodeListItem CodedValue="HVA" Rank="283">
                    <Decode>
                        <TranslatedText xml:lang="en">HVA</TranslatedText>
                    </Decode>
                </CodeListItem>
                <CodeListItem CodedValue="HYDCDN" Rank="284">
                    <Decode>
                        <TranslatedText xml:lang="en">HYDCDN</TranslatedText>
                    </Decode>
                </CodeListItem>
                <CodeListItem CodedValue="HYDMRPHN" Rank="285">
                    <Decode>
                        <TranslatedText xml:lang="en">HYDMRPHN</TranslatedText>
                    </Decode>
                </CodeListItem>
                <CodeListItem CodedValue="HYPRLN" Rank="286">
                    <Decode>
                        <TranslatedText xml:lang="en">HYPRLN</TranslatedText>
                    </Decode>
                </CodeListItem>
                <CodeListItem CodedValue="HYPSEGCE" Rank="287">
                    <Decode>
                        <TranslatedText xml:lang="en">HYPSEGCE</TranslatedText>
                    </Decode>
                </CodeListItem>
                <CodeListItem CodedValue="IBCT" Rank="288">
                    <Decode>
                        <TranslatedText xml:lang="en">IBCT</TranslatedText>
                    </Decode>
                </CodeListItem>
                <CodeListItem CodedValue="IBCU" Rank="289">
                    <Decode>
                        <TranslatedText xml:lang="en">IBCU</TranslatedText>
                    </Decode>
                </CodeListItem>
                <CodeListItem CodedValue="IC512AB" Rank="290">
                    <Decode>
                        <TranslatedText xml:lang="en">IC512AB</TranslatedText>
                    </Decode>
                </CodeListItem>
                <CodeListItem CodedValue="IC512AG" Rank="291">
                    <Decode>
                        <TranslatedText xml:lang="en">IC512AG</TranslatedText>
                    </Decode>
                </CodeListItem>
                <CodeListItem CodedValue="IFNA" Rank="292">
                    <Decode>
                        <TranslatedText xml:lang="en">IFNA</TranslatedText>
                    </Decode>
                </CodeListItem>
                <CodeListItem CodedValue="IFNB" Rank="293">
                    <Decode>
                        <TranslatedText xml:lang="en">IFNB</TranslatedText>
                    </Decode>
                </CodeListItem>
                <CodeListItem CodedValue="IFNG" Rank="294">
                    <Decode>
                        <TranslatedText xml:lang="en">IFNG</TranslatedText>
                    </Decode>
                </CodeListItem>
                <CodeListItem CodedValue="IGA" Rank="295">
                    <Decode>
                        <TranslatedText xml:lang="en">IGA</TranslatedText>
                    </Decode>
                </CodeListItem>
                <CodeListItem CodedValue="IGE" Rank="296">
                    <Decode>
                        <TranslatedText xml:lang="en">IGE</TranslatedText>
                    </Decode>
                </CodeListItem>
                <CodeListItem CodedValue="IGF1" Rank="297">
                    <Decode>
                        <TranslatedText xml:lang="en">IGF1</TranslatedText>
                    </Decode>
                </CodeListItem>
                <CodeListItem CodedValue="IGF2" Rank="298">
                    <Decode>
                        <TranslatedText xml:lang="en">IGF2</TranslatedText>
                    </Decode>
                </CodeListItem>
                <CodeListItem CodedValue="IGG" Rank="299">
                    <Decode>
                        <TranslatedText xml:lang="en">IGG</TranslatedText>
                    </Decode>
                </CodeListItem>
                <CodeListItem CodedValue="IGM" Rank="300">
                    <Decode>
                        <TranslatedText xml:lang="en">IGM</TranslatedText>
                    </Decode>
                </CodeListItem>
                <CodeListItem CodedValue="INDICAN" Rank="301">
                    <Decode>
                        <TranslatedText xml:lang="en">INDICAN</TranslatedText>
                    </Decode>
                </CodeListItem>
                <CodeListItem CodedValue="INGAPAB" Rank="302">
                    <Decode>
                        <TranslatedText xml:lang="en">INGAPAB</TranslatedText>
                    </Decode>
                </CodeListItem>
                <CodeListItem CodedValue="INHIBINA" Rank="303">
                    <Decode>
                        <TranslatedText xml:lang="en">INHIBINA</TranslatedText>
                    </Decode>
                </CodeListItem>
                <CodeListItem CodedValue="INR" Rank="304">
                    <Decode>
                        <TranslatedText xml:lang="en">INR</TranslatedText>
                    </Decode>
                </CodeListItem>
                <CodeListItem CodedValue="INSULIN" Rank="305">
                    <Decode>
                        <TranslatedText xml:lang="en">INSULIN</TranslatedText>
                    </Decode>
                </CodeListItem>
                <CodeListItem CodedValue="INTLK1" Rank="306">
                    <Decode>
                        <TranslatedText xml:lang="en">INTLK1</TranslatedText>
                    </Decode>
                </CodeListItem>
                <CodeListItem CodedValue="INTLK10" Rank="307">
                    <Decode>
                        <TranslatedText xml:lang="en">INTLK10</TranslatedText>
                    </Decode>
                </CodeListItem>
                <CodeListItem CodedValue="INTLK11" Rank="308">
                    <Decode>
                        <TranslatedText xml:lang="en">INTLK11</TranslatedText>
                    </Decode>
                </CodeListItem>
                <CodeListItem CodedValue="INTLK12" Rank="309">
                    <Decode>
                        <TranslatedText xml:lang="en">INTLK12</TranslatedText>
                    </Decode>
                </CodeListItem>
                <CodeListItem CodedValue="INTLK13" Rank="310">
                    <Decode>
                        <TranslatedText xml:lang="en">INTLK13</TranslatedText>
                    </Decode>
                </CodeListItem>
                <CodeListItem CodedValue="INTLK14" Rank="311">
                    <Decode>
                        <TranslatedText xml:lang="en">INTLK14</TranslatedText>
                    </Decode>
                </CodeListItem>
                <CodeListItem CodedValue="INTLK15" Rank="312">
                    <Decode>
                        <TranslatedText xml:lang="en">INTLK15</TranslatedText>
                    </Decode>
                </CodeListItem>
                <CodeListItem CodedValue="INTLK16" Rank="313">
                    <Decode>
                        <TranslatedText xml:lang="en">INTLK16</TranslatedText>
                    </Decode>
                </CodeListItem>
                <CodeListItem CodedValue="INTLK17" Rank="314">
                    <Decode>
                        <TranslatedText xml:lang="en">INTLK17</TranslatedText>
                    </Decode>
                </CodeListItem>
                <CodeListItem CodedValue="INTLK18" Rank="315">
                    <Decode>
                        <TranslatedText xml:lang="en">INTLK18</TranslatedText>
                    </Decode>
                </CodeListItem>
                <CodeListItem CodedValue="INTLK19" Rank="316">
                    <Decode>
                        <TranslatedText xml:lang="en">INTLK19</TranslatedText>
                    </Decode>
                </CodeListItem>
                <CodeListItem CodedValue="INTLK2" Rank="317">
                    <Decode>
                        <TranslatedText xml:lang="en">INTLK2</TranslatedText>
                    </Decode>
                </CodeListItem>
                <CodeListItem CodedValue="INTLK20" Rank="318">
                    <Decode>
                        <TranslatedText xml:lang="en">INTLK20</TranslatedText>
                    </Decode>
                </CodeListItem>
                <CodeListItem CodedValue="INTLK21" Rank="319">
                    <Decode>
                        <TranslatedText xml:lang="en">INTLK21</TranslatedText>
                    </Decode>
                </CodeListItem>
                <CodeListItem CodedValue="INTLK22" Rank="320">
                    <Decode>
                        <TranslatedText xml:lang="en">INTLK22</TranslatedText>
                    </Decode>
                </CodeListItem>
                <CodeListItem CodedValue="INTLK23" Rank="321">
                    <Decode>
                        <TranslatedText xml:lang="en">INTLK23</TranslatedText>
                    </Decode>
                </CodeListItem>
                <CodeListItem CodedValue="INTLK24" Rank="322">
                    <Decode>
                        <TranslatedText xml:lang="en">INTLK24</TranslatedText>
                    </Decode>
                </CodeListItem>
                <CodeListItem CodedValue="INTLK25" Rank="323">
                    <Decode>
                        <TranslatedText xml:lang="en">INTLK25</TranslatedText>
                    </Decode>
                </CodeListItem>
                <CodeListItem CodedValue="INTLK26" Rank="324">
                    <Decode>
                        <TranslatedText xml:lang="en">INTLK26</TranslatedText>
                    </Decode>
                </CodeListItem>
                <CodeListItem CodedValue="INTLK27" Rank="325">
                    <Decode>
                        <TranslatedText xml:lang="en">INTLK27</TranslatedText>
                    </Decode>
                </CodeListItem>
                <CodeListItem CodedValue="INTLK28" Rank="326">
                    <Decode>
                        <TranslatedText xml:lang="en">INTLK28</TranslatedText>
                    </Decode>
                </CodeListItem>
                <CodeListItem CodedValue="INTLK29" Rank="327">
                    <Decode>
                        <TranslatedText xml:lang="en">INTLK29</TranslatedText>
                    </Decode>
                </CodeListItem>
                <CodeListItem CodedValue="INTLK3" Rank="328">
                    <Decode>
                        <TranslatedText xml:lang="en">INTLK3</TranslatedText>
                    </Decode>
                </CodeListItem>
                <CodeListItem CodedValue="INTLK30" Rank="329">
                    <Decode>
                        <TranslatedText xml:lang="en">INTLK30</TranslatedText>
                    </Decode>
                </CodeListItem>
                <CodeListItem CodedValue="INTLK31" Rank="330">
                    <Decode>
                        <TranslatedText xml:lang="en">INTLK31</TranslatedText>
                    </Decode>
                </CodeListItem>
                <CodeListItem CodedValue="INTLK32" Rank="331">
                    <Decode>
                        <TranslatedText xml:lang="en">INTLK32</TranslatedText>
                    </Decode>
                </CodeListItem>
                <CodeListItem CodedValue="INTLK33" Rank="332">
                    <Decode>
                        <TranslatedText xml:lang="en">INTLK33</TranslatedText>
                    </Decode>
                </CodeListItem>
                <CodeListItem CodedValue="INTLK4" Rank="333">
                    <Decode>
                        <TranslatedText xml:lang="en">INTLK4</TranslatedText>
                    </Decode>
                </CodeListItem>
                <CodeListItem CodedValue="INTLK5" Rank="334">
                    <Decode>
                        <TranslatedText xml:lang="en">INTLK5</TranslatedText>
                    </Decode>
                </CodeListItem>
                <CodeListItem CodedValue="INTLK6" Rank="335">
                    <Decode>
                        <TranslatedText xml:lang="en">INTLK6</TranslatedText>
                    </Decode>
                </CodeListItem>
                <CodeListItem CodedValue="INTLK7" Rank="336">
                    <Decode>
                        <TranslatedText xml:lang="en">INTLK7</TranslatedText>
                    </Decode>
                </CodeListItem>
                <CodeListItem CodedValue="INTLK8" Rank="337">
                    <Decode>
                        <TranslatedText xml:lang="en">INTLK8</TranslatedText>
                    </Decode>
                </CodeListItem>
                <CodeListItem CodedValue="INTLK9" Rank="338">
                    <Decode>
                        <TranslatedText xml:lang="en">INTLK9</TranslatedText>
                    </Decode>
                </CodeListItem>
                <CodeListItem CodedValue="IRON" Rank="339">
                    <Decode>
                        <TranslatedText xml:lang="en">IRON</TranslatedText>
                    </Decode>
                </CodeListItem>
                <CodeListItem CodedValue="ISOPRF2" Rank="340">
                    <Decode>
                        <TranslatedText xml:lang="en">ISOPRF2</TranslatedText>
                    </Decode>
                </CodeListItem>
                <CodeListItem CodedValue="K" Rank="341">
                    <Decode>
                        <TranslatedText xml:lang="en">K</TranslatedText>
                    </Decode>
                </CodeListItem>
                <CodeListItem CodedValue="KCREAT" Rank="342">
                    <Decode>
                        <TranslatedText xml:lang="en">KCREAT</TranslatedText>
                    </Decode>
                </CodeListItem>
                <CodeListItem CodedValue="KETONES" Rank="343">
                    <Decode>
                        <TranslatedText xml:lang="en">KETONES</TranslatedText>
                    </Decode>
                </CodeListItem>
                <CodeListItem CodedValue="LACTICAC" Rank="344">
                    <Decode>
                        <TranslatedText xml:lang="en">LACTICAC</TranslatedText>
                    </Decode>
                </CodeListItem>
                <CodeListItem CodedValue="LDH" Rank="345">
                    <Decode>
                        <TranslatedText xml:lang="en">LDH</TranslatedText>
                    </Decode>
                </CodeListItem>
                <CodeListItem CodedValue="LDH1" Rank="346">
                    <Decode>
                        <TranslatedText xml:lang="en">LDH1</TranslatedText>
                    </Decode>
                </CodeListItem>
                <CodeListItem CodedValue="LDH1LDH" Rank="347">
                    <Decode>
                        <TranslatedText xml:lang="en">LDH1LDH</TranslatedText>
                    </Decode>
                </CodeListItem>
                <CodeListItem CodedValue="LDH2" Rank="348">
                    <Decode>
                        <TranslatedText xml:lang="en">LDH2</TranslatedText>
                    </Decode>
                </CodeListItem>
                <CodeListItem CodedValue="LDH2LDH" Rank="349">
                    <Decode>
                        <TranslatedText xml:lang="en">LDH2LDH</TranslatedText>
                    </Decode>
                </CodeListItem>
                <CodeListItem CodedValue="LDH3" Rank="350">
                    <Decode>
                        <TranslatedText xml:lang="en">LDH3</TranslatedText>
                    </Decode>
                </CodeListItem>
                <CodeListItem CodedValue="LDH3LDH" Rank="351">
                    <Decode>
                        <TranslatedText xml:lang="en">LDH3LDH</TranslatedText>
                    </Decode>
                </CodeListItem>
                <CodeListItem CodedValue="LDH4" Rank="352">
                    <Decode>
                        <TranslatedText xml:lang="en">LDH4</TranslatedText>
                    </Decode>
                </CodeListItem>
                <CodeListItem CodedValue="LDH4LDH" Rank="353">
                    <Decode>
                        <TranslatedText xml:lang="en">LDH4LDH</TranslatedText>
                    </Decode>
                </CodeListItem>
                <CodeListItem CodedValue="LDH5" Rank="354">
                    <Decode>
                        <TranslatedText xml:lang="en">LDH5</TranslatedText>
                    </Decode>
                </CodeListItem>
                <CodeListItem CodedValue="LDH5LDH" Rank="355">
                    <Decode>
                        <TranslatedText xml:lang="en">LDH5LDH</TranslatedText>
                    </Decode>
                </CodeListItem>
                <CodeListItem CodedValue="LDHCREAT" Rank="356">
                    <Decode>
                        <TranslatedText xml:lang="en">LDHCREAT</TranslatedText>
                    </Decode>
                </CodeListItem>
                <CodeListItem CodedValue="LDL" Rank="357">
                    <Decode>
                        <TranslatedText xml:lang="en">LDL</TranslatedText>
                    </Decode>
                </CodeListItem>
                <CodeListItem CodedValue="LEPTIN" Rank="358">
                    <Decode>
                        <TranslatedText xml:lang="en">LEPTIN</TranslatedText>
                    </Decode>
                </CodeListItem>
                <CodeListItem CodedValue="LEUKASE" Rank="359">
                    <Decode>
                        <TranslatedText xml:lang="en">LEUKASE</TranslatedText>
                    </Decode>
                </CodeListItem>
                <CodeListItem CodedValue="LGLUCLE" Rank="360">
                    <Decode>
                        <TranslatedText xml:lang="en">LGLUCLE</TranslatedText>
                    </Decode>
                </CodeListItem>
                <CodeListItem CodedValue="LGUNSCE" Rank="361">
                    <Decode>
                        <TranslatedText xml:lang="en">LGUNSCE</TranslatedText>
                    </Decode>
                </CodeListItem>
                <CodeListItem CodedValue="LH" Rank="362">
                    <Decode>
                        <TranslatedText xml:lang="en">LH</TranslatedText>
                    </Decode>
                </CodeListItem>
                <CodeListItem CodedValue="LIPASE" Rank="363">
                    <Decode>
                        <TranslatedText xml:lang="en">LIPASE</TranslatedText>
                    </Decode>
                </CodeListItem>
                <CodeListItem CodedValue="LPA" Rank="364">
                    <Decode>
                        <TranslatedText xml:lang="en">LPA</TranslatedText>
                    </Decode>
                </CodeListItem>
                <CodeListItem CodedValue="LTF" Rank="365">
                    <Decode>
                        <TranslatedText xml:lang="en">LTF</TranslatedText>
                    </Decode>
                </CodeListItem>
                <CodeListItem CodedValue="LYM" Rank="366">
                    <Decode>
                        <TranslatedText xml:lang="en">LYM</TranslatedText>
                    </Decode>
                </CodeListItem>
                <CodeListItem CodedValue="LYMAT" Rank="367">
                    <Decode>
                        <TranslatedText xml:lang="en">LYMAT</TranslatedText>
                    </Decode>
                </CodeListItem>
                <CodeListItem CodedValue="LYMATLE" Rank="368">
                    <Decode>
                        <TranslatedText xml:lang="en">LYMATLE</TranslatedText>
                    </Decode>
                </CodeListItem>
                <CodeListItem CodedValue="LYMLE" Rank="369">
                    <Decode>
                        <TranslatedText xml:lang="en">LYMLE</TranslatedText>
                    </Decode>
                </CodeListItem>
                <CodeListItem CodedValue="LYMMCE" Rank="370">
                    <Decode>
                        <TranslatedText xml:lang="en">LYMMCE</TranslatedText>
                    </Decode>
                </CodeListItem>
                <CodeListItem CodedValue="LYMMCELY" Rank="371">
                    <Decode>
                        <TranslatedText xml:lang="en">LYMMCELY</TranslatedText>
                    </Decode>
                </CodeListItem>
                <CodeListItem CodedValue="LYMPHOTC" Rank="372">
                    <Decode>
                        <TranslatedText xml:lang="en">LYMPHOTC</TranslatedText>
                    </Decode>
                </CodeListItem>
                <CodeListItem CodedValue="LYMPL" Rank="373">
                    <Decode>
                        <TranslatedText xml:lang="en">LYMPL</TranslatedText>
                    </Decode>
                </CodeListItem>
                <CodeListItem CodedValue="LYMPLLY" Rank="374">
                    <Decode>
                        <TranslatedText xml:lang="en">LYMPLLY</TranslatedText>
                    </Decode>
                </CodeListItem>
                <CodeListItem CodedValue="LYMRCT" Rank="375">
                    <Decode>
                        <TranslatedText xml:lang="en">LYMRCT</TranslatedText>
                    </Decode>
                </CodeListItem>
                <CodeListItem CodedValue="LYMRCTLY" Rank="376">
                    <Decode>
                        <TranslatedText xml:lang="en">LYMRCTLY</TranslatedText>
                    </Decode>
                </CodeListItem>
                <CodeListItem CodedValue="MACROCY" Rank="377">
                    <Decode>
                        <TranslatedText xml:lang="en">MACROCY</TranslatedText>
                    </Decode>
                </CodeListItem>
                <CodeListItem CodedValue="MAYHEG" Rank="378">
                    <Decode>
                        <TranslatedText xml:lang="en">MAYHEG</TranslatedText>
                    </Decode>
                </CodeListItem>
                <CodeListItem CodedValue="MCH" Rank="379">
                    <Decode>
                        <TranslatedText xml:lang="en">MCH</TranslatedText>
                    </Decode>
                </CodeListItem>
                <CodeListItem CodedValue="MCHC" Rank="380">
                    <Decode>
                        <TranslatedText xml:lang="en">MCHC</TranslatedText>
                    </Decode>
                </CodeListItem>
                <CodeListItem CodedValue="MCP1" Rank="381">
                    <Decode>
                        <TranslatedText xml:lang="en">MCP1</TranslatedText>
                    </Decode>
                </CodeListItem>
                <CodeListItem CodedValue="MCSF" Rank="382">
                    <Decode>
                        <TranslatedText xml:lang="en">MCSF</TranslatedText>
                    </Decode>
                </CodeListItem>
                <CodeListItem CodedValue="MCV" Rank="383">
                    <Decode>
                        <TranslatedText xml:lang="en">MCV</TranslatedText>
                    </Decode>
                </CodeListItem>
                <CodeListItem CodedValue="MDC" Rank="384">
                    <Decode>
                        <TranslatedText xml:lang="en">MDC</TranslatedText>
                    </Decode>
                </CodeListItem>
                <CodeListItem CodedValue="METAMY" Rank="385">
                    <Decode>
                        <TranslatedText xml:lang="en">METAMY</TranslatedText>
                    </Decode>
                </CodeListItem>
                <CodeListItem CodedValue="METAMYLE" Rank="386">
                    <Decode>
                        <TranslatedText xml:lang="en">METAMYLE</TranslatedText>
                    </Decode>
                </CodeListItem>
                <CodeListItem CodedValue="METHDN" Rank="387">
                    <Decode>
                        <TranslatedText xml:lang="en">METHDN</TranslatedText>
                    </Decode>
                </CodeListItem>
                <CodeListItem CodedValue="METHQLDN" Rank="388">
                    <Decode>
                        <TranslatedText xml:lang="en">METHQLDN</TranslatedText>
                    </Decode>
                </CodeListItem>
                <CodeListItem CodedValue="MG" Rank="389">
                    <Decode>
                        <TranslatedText xml:lang="en">MG</TranslatedText>
                    </Decode>
                </CodeListItem>
                <CodeListItem CodedValue="MGB" Rank="390">
                    <Decode>
                        <TranslatedText xml:lang="en">MGB</TranslatedText>
                    </Decode>
                </CodeListItem>
                <CodeListItem CodedValue="MGCREAT" Rank="391">
                    <Decode>
                        <TranslatedText xml:lang="en">MGCREAT</TranslatedText>
                    </Decode>
                </CodeListItem>
                <CodeListItem CodedValue="MICROCY" Rank="392">
                    <Decode>
                        <TranslatedText xml:lang="en">MICROCY</TranslatedText>
                    </Decode>
                </CodeListItem>
                <CodeListItem CodedValue="MIP1A" Rank="393">
                    <Decode>
                        <TranslatedText xml:lang="en">MIP1A</TranslatedText>
                    </Decode>
                </CodeListItem>
                <CodeListItem CodedValue="MIP1B" Rank="394">
                    <Decode>
                        <TranslatedText xml:lang="en">MIP1B</TranslatedText>
                    </Decode>
                </CodeListItem>
                <CodeListItem CodedValue="MLATONIN" Rank="395">
                    <Decode>
                        <TranslatedText xml:lang="en">MLATONIN</TranslatedText>
                    </Decode>
                </CodeListItem>
                <CodeListItem CodedValue="MLIGCE" Rank="396">
                    <Decode>
                        <TranslatedText xml:lang="en">MLIGCE</TranslatedText>
                    </Decode>
                </CodeListItem>
                <CodeListItem CodedValue="MLIGCEBC" Rank="397">
                    <Decode>
                        <TranslatedText xml:lang="en">MLIGCEBC</TranslatedText>
                    </Decode>
                </CodeListItem>
                <CodeListItem CodedValue="MMP1" Rank="398">
                    <Decode>
                        <TranslatedText xml:lang="en">MMP1</TranslatedText>
                    </Decode>
                </CodeListItem>
                <CodeListItem CodedValue="MMP2" Rank="399">
                    <Decode>
                        <TranslatedText xml:lang="en">MMP2</TranslatedText>
                    </Decode>
                </CodeListItem>
                <CodeListItem CodedValue="MMP3" Rank="400">
                    <Decode>
                        <TranslatedText xml:lang="en">MMP3</TranslatedText>
                    </Decode>
                </CodeListItem>
                <CodeListItem CodedValue="MMP7" Rank="401">
                    <Decode>
                        <TranslatedText xml:lang="en">MMP7</TranslatedText>
                    </Decode>
                </CodeListItem>
                <CodeListItem CodedValue="MMP8" Rank="402">
                    <Decode>
                        <TranslatedText xml:lang="en">MMP8</TranslatedText>
                    </Decode>
                </CodeListItem>
                <CodeListItem CodedValue="MMP9" Rank="403">
                    <Decode>
                        <TranslatedText xml:lang="en">MMP9</TranslatedText>
                    </Decode>
                </CodeListItem>
                <CodeListItem CodedValue="MONO" Rank="404">
                    <Decode>
                        <TranslatedText xml:lang="en">MONO</TranslatedText>
                    </Decode>
                </CodeListItem>
                <CodeListItem CodedValue="MONOBL" Rank="405">
                    <Decode>
                        <TranslatedText xml:lang="en">MONOBL</TranslatedText>
                    </Decode>
                </CodeListItem>
                <CodeListItem CodedValue="MONOBLLE" Rank="406">
                    <Decode>
                        <TranslatedText xml:lang="en">MONOBLLE</TranslatedText>
                    </Decode>
                </CodeListItem>
                <CodeListItem CodedValue="MONOLE" Rank="407">
                    <Decode>
                        <TranslatedText xml:lang="en">MONOLE</TranslatedText>
                    </Decode>
                </CodeListItem>
                <CodeListItem CodedValue="MORPHINE" Rank="408">
                    <Decode>
                        <TranslatedText xml:lang="en">MORPHINE</TranslatedText>
                    </Decode>
                </CodeListItem>
                <CodeListItem CodedValue="MPO" Rank="409">
                    <Decode>
                        <TranslatedText xml:lang="en">MPO</TranslatedText>
                    </Decode>
                </CodeListItem>
                <CodeListItem CodedValue="MPV" Rank="410">
                    <Decode>
                        <TranslatedText xml:lang="en">MPV</TranslatedText>
                    </Decode>
                </CodeListItem>
                <CodeListItem CodedValue="MUCTHR" Rank="411">
                    <Decode>
                        <TranslatedText xml:lang="en">MUCTHR</TranslatedText>
                    </Decode>
                </CodeListItem>
                <CodeListItem CodedValue="MYBLA" Rank="412">
                    <Decode>
                        <TranslatedText xml:lang="en">MYBLA</TranslatedText>
                    </Decode>
                </CodeListItem>
                <CodeListItem CodedValue="MYBLALE" Rank="413">
                    <Decode>
                        <TranslatedText xml:lang="en">MYBLALE</TranslatedText>
                    </Decode>
                </CodeListItem>
                <CodeListItem CodedValue="MYCY" Rank="414">
                    <Decode>
                        <TranslatedText xml:lang="en">MYCY</TranslatedText>
                    </Decode>
                </CodeListItem>
                <CodeListItem CodedValue="MYCYLE" Rank="415">
                    <Decode>
                        <TranslatedText xml:lang="en">MYCYLE</TranslatedText>
                    </Decode>
                </CodeListItem>
                <CodeListItem CodedValue="NACREAT" Rank="416">
                    <Decode>
                        <TranslatedText xml:lang="en">NACREAT</TranslatedText>
                    </Decode>
                </CodeListItem>
                <CodeListItem CodedValue="NAG" Rank="417">
                    <Decode>
                        <TranslatedText xml:lang="en">NAG</TranslatedText>
                    </Decode>
                </CodeListItem>
                <CodeListItem CodedValue="NAGCREAT" Rank="418">
                    <Decode>
                        <TranslatedText xml:lang="en">NAGCREAT</TranslatedText>
                    </Decode>
                </CodeListItem>
                <CodeListItem CodedValue="NCTD5P" Rank="419">
                    <Decode>
                        <TranslatedText xml:lang="en">NCTD5P</TranslatedText>
                    </Decode>
                </CodeListItem>
                <CodeListItem CodedValue="NEOPTERN" Rank="420">
                    <Decode>
                        <TranslatedText xml:lang="en">NEOPTERN</TranslatedText>
                    </Decode>
                </CodeListItem>
                <CodeListItem CodedValue="NEUT" Rank="421">
                    <Decode>
                        <TranslatedText xml:lang="en">NEUT</TranslatedText>
                    </Decode>
                </CodeListItem>
                <CodeListItem CodedValue="NEUTB" Rank="422">
                    <Decode>
                        <TranslatedText xml:lang="en">NEUTB</TranslatedText>
                    </Decode>
                </CodeListItem>
                <CodeListItem CodedValue="NEUTBLE" Rank="423">
                    <Decode>
                        <TranslatedText xml:lang="en">NEUTBLE</TranslatedText>
                    </Decode>
                </CodeListItem>
                <CodeListItem CodedValue="NEUTLE" Rank="424">
                    <Decode>
                        <TranslatedText xml:lang="en">NEUTLE</TranslatedText>
                    </Decode>
                </CodeListItem>
                <CodeListItem CodedValue="NEUTMM" Rank="425">
                    <Decode>
                        <TranslatedText xml:lang="en">NEUTMM</TranslatedText>
                    </Decode>
                </CodeListItem>
                <CodeListItem CodedValue="NEUTMY" Rank="426">
                    <Decode>
                        <TranslatedText xml:lang="en">NEUTMY</TranslatedText>
                    </Decode>
                </CodeListItem>
                <CodeListItem CodedValue="NEUTSG" Rank="427">
                    <Decode>
                        <TranslatedText xml:lang="en">NEUTSG</TranslatedText>
                    </Decode>
                </CodeListItem>
                <CodeListItem CodedValue="NEUTSGLE" Rank="428">
                    <Decode>
                        <TranslatedText xml:lang="en">NEUTSGLE</TranslatedText>
                    </Decode>
                </CodeListItem>
                <CodeListItem CodedValue="NEUTVAC" Rank="429">
                    <Decode>
                        <TranslatedText xml:lang="en">NEUTVAC</TranslatedText>
                    </Decode>
                </CodeListItem>
                <CodeListItem CodedValue="NITRITE" Rank="430">
                    <Decode>
                        <TranslatedText xml:lang="en">NITRITE</TranslatedText>
                    </Decode>
                </CodeListItem>
                <CodeListItem CodedValue="NOREPIN" Rank="431">
                    <Decode>
                        <TranslatedText xml:lang="en">NOREPIN</TranslatedText>
                    </Decode>
                </CodeListItem>
                <CodeListItem CodedValue="NPY" Rank="432">
                    <Decode>
                        <TranslatedText xml:lang="en">NPY</TranslatedText>
                    </Decode>
                </CodeListItem>
                <CodeListItem CodedValue="NTELOP" Rank="433">
                    <Decode>
                        <TranslatedText xml:lang="en">NTELOP</TranslatedText>
                    </Decode>
                </CodeListItem>
                <CodeListItem CodedValue="NTXI" Rank="434">
                    <Decode>
                        <TranslatedText xml:lang="en">NTXI</TranslatedText>
                    </Decode>
                </CodeListItem>
                <CodeListItem CodedValue="NTXII" Rank="435">
                    <Decode>
                        <TranslatedText xml:lang="en">NTXII</TranslatedText>
                    </Decode>
                </CodeListItem>
                <CodeListItem CodedValue="OCCBLD" Rank="436">
                    <Decode>
                        <TranslatedText xml:lang="en">OCCBLD</TranslatedText>
                    </Decode>
                </CodeListItem>
                <CodeListItem CodedValue="OPIATE" Rank="437">
                    <Decode>
                        <TranslatedText xml:lang="en">OPIATE</TranslatedText>
                    </Decode>
                </CodeListItem>
                <CodeListItem CodedValue="OSMLTY" Rank="438">
                    <Decode>
                        <TranslatedText xml:lang="en">OSMLTY</TranslatedText>
                    </Decode>
                </CodeListItem>
                <CodeListItem CodedValue="OSTEOC" Rank="439">
                    <Decode>
                        <TranslatedText xml:lang="en">OSTEOC</TranslatedText>
                    </Decode>
                </CodeListItem>
                <CodeListItem CodedValue="OXYCDN" Rank="440">
                    <Decode>
                        <TranslatedText xml:lang="en">OXYCDN</TranslatedText>
                    </Decode>
                </CodeListItem>
                <CodeListItem CodedValue="OXYTOCIN" Rank="441">
                    <Decode>
                        <TranslatedText xml:lang="en">OXYTOCIN</TranslatedText>
                    </Decode>
                </CodeListItem>
                <CodeListItem CodedValue="PAI1" Rank="442">
                    <Decode>
                        <TranslatedText xml:lang="en">PAI1</TranslatedText>
                    </Decode>
                </CodeListItem>
                <CodeListItem CodedValue="PAI1AG" Rank="443">
                    <Decode>
                        <TranslatedText xml:lang="en">PAI1AG</TranslatedText>
                    </Decode>
                </CodeListItem>
                <CodeListItem CodedValue="PAP" Rank="444">
                    <Decode>
                        <TranslatedText xml:lang="en">PAP</TranslatedText>
                    </Decode>
                </CodeListItem>
                <CodeListItem CodedValue="PAPPA" Rank="445">
                    <Decode>
                        <TranslatedText xml:lang="en">PAPPA</TranslatedText>
                    </Decode>
                </CodeListItem>
                <CodeListItem CodedValue="PAPPEN" Rank="446">
                    <Decode>
                        <TranslatedText xml:lang="en">PAPPEN</TranslatedText>
                    </Decode>
                </CodeListItem>
                <CodeListItem CodedValue="PCO2" Rank="447">
                    <Decode>
                        <TranslatedText xml:lang="en">PCO2</TranslatedText>
                    </Decode>
                </CodeListItem>
                <CodeListItem CodedValue="PCP" Rank="448">
                    <Decode>
                        <TranslatedText xml:lang="en">PCP</TranslatedText>
                    </Decode>
                </CodeListItem>
                <CodeListItem CodedValue="PDW" Rank="449">
                    <Decode>
                        <TranslatedText xml:lang="en">PDW</TranslatedText>
                    </Decode>
                </CodeListItem>
                <CodeListItem CodedValue="PELGERH" Rank="450">
                    <Decode>
                        <TranslatedText xml:lang="en">PELGERH</TranslatedText>
                    </Decode>
                </CodeListItem>
                <CodeListItem CodedValue="PEMAB" Rank="451">
                    <Decode>
                        <TranslatedText xml:lang="en">PEMAB</TranslatedText>
                    </Decode>
                </CodeListItem>
                <CodeListItem CodedValue="PH" Rank="452">
                    <Decode>
                        <TranslatedText xml:lang="en">PH</TranslatedText>
                    </Decode>
                </CodeListItem>
                <CodeListItem CodedValue="PHENTHZ" Rank="453">
                    <Decode>
                        <TranslatedText xml:lang="en">PHENTHZ</TranslatedText>
                    </Decode>
                </CodeListItem>
                <CodeListItem CodedValue="PHOS" Rank="454">
                    <Decode>
                        <TranslatedText xml:lang="en">PHOS</TranslatedText>
                    </Decode>
                </CodeListItem>
                <CodeListItem CodedValue="PHOSCRT" Rank="455">
                    <Decode>
                        <TranslatedText xml:lang="en">PHOSCRT</TranslatedText>
                    </Decode>
                </CodeListItem>
                <CodeListItem CodedValue="PICP" Rank="456">
                    <Decode>
                        <TranslatedText xml:lang="en">PICP</TranslatedText>
                    </Decode>
                </CodeListItem>
                <CodeListItem CodedValue="PLAT" Rank="457">
                    <Decode>
                        <TranslatedText xml:lang="en">PLAT</TranslatedText>
                    </Decode>
                </CodeListItem>
                <CodeListItem CodedValue="PLATGNT" Rank="458">
                    <Decode>
                        <TranslatedText xml:lang="en">PLATGNT</TranslatedText>
                    </Decode>
                </CodeListItem>
                <CodeListItem CodedValue="PLATLRG" Rank="459">
                    <Decode>
                        <TranslatedText xml:lang="en">PLATLRG</TranslatedText>
                    </Decode>
                </CodeListItem>
                <CodeListItem CodedValue="PLSMCE" Rank="460">
                    <Decode>
                        <TranslatedText xml:lang="en">PLSMCE</TranslatedText>
                    </Decode>
                </CodeListItem>
                <CodeListItem CodedValue="PLSMCELY" Rank="461">
                    <Decode>
                        <TranslatedText xml:lang="en">PLSMCELY</TranslatedText>
                    </Decode>
                </CodeListItem>
                <CodeListItem CodedValue="PLSPCE" Rank="462">
                    <Decode>
                        <TranslatedText xml:lang="en">PLSPCE</TranslatedText>
                    </Decode>
                </CodeListItem>
                <CodeListItem CodedValue="PLSPCELY" Rank="463">
                    <Decode>
                        <TranslatedText xml:lang="en">PLSPCELY</TranslatedText>
                    </Decode>
                </CodeListItem>
                <CodeListItem CodedValue="PNCTPP" Rank="464">
                    <Decode>
                        <TranslatedText xml:lang="en">PNCTPP</TranslatedText>
                    </Decode>
                </CodeListItem>
                <CodeListItem CodedValue="PO2" Rank="465">
                    <Decode>
                        <TranslatedText xml:lang="en">PO2</TranslatedText>
                    </Decode>
                </CodeListItem>
                <CodeListItem CodedValue="POIKILO" Rank="466">
                    <Decode>
                        <TranslatedText xml:lang="en">POIKILO</TranslatedText>
                    </Decode>
                </CodeListItem>
                <CodeListItem CodedValue="POIKRBC" Rank="467">
                    <Decode>
                        <TranslatedText xml:lang="en">POIKRBC</TranslatedText>
                    </Decode>
                </CodeListItem>
                <CodeListItem CodedValue="POLYCHR" Rank="468">
                    <Decode>
                        <TranslatedText xml:lang="en">POLYCHR</TranslatedText>
                    </Decode>
                </CodeListItem>
                <CodeListItem CodedValue="PRLYMLE" Rank="469">
                    <Decode>
                        <TranslatedText xml:lang="en">PRLYMLE</TranslatedText>
                    </Decode>
                </CodeListItem>
                <CodeListItem CodedValue="PROGEST" Rank="470">
                    <Decode>
                        <TranslatedText xml:lang="en">PROGEST</TranslatedText>
                    </Decode>
                </CodeListItem>
                <CodeListItem CodedValue="PROINSUL" Rank="471">
                    <Decode>
                        <TranslatedText xml:lang="en">PROINSUL</TranslatedText>
                    </Decode>
                </CodeListItem>
                <CodeListItem CodedValue="PROLCTN" Rank="472">
                    <Decode>
                        <TranslatedText xml:lang="en">PROLCTN</TranslatedText>
                    </Decode>
                </CodeListItem>
                <CodeListItem CodedValue="PROLYM" Rank="473">
                    <Decode>
                        <TranslatedText xml:lang="en">PROLYM</TranslatedText>
                    </Decode>
                </CodeListItem>
                <CodeListItem CodedValue="PROLYMLY" Rank="474">
                    <Decode>
                        <TranslatedText xml:lang="en">PROLYMLY</TranslatedText>
                    </Decode>
                </CodeListItem>
                <CodeListItem CodedValue="PROMONLE" Rank="475">
                    <Decode>
                        <TranslatedText xml:lang="en">PROMONLE</TranslatedText>
                    </Decode>
                </CodeListItem>
                <CodeListItem CodedValue="PROMONO" Rank="476">
                    <Decode>
                        <TranslatedText xml:lang="en">PROMONO</TranslatedText>
                    </Decode>
                </CodeListItem>
                <CodeListItem CodedValue="PROMY" Rank="477">
                    <Decode>
                        <TranslatedText xml:lang="en">PROMY</TranslatedText>
                    </Decode>
                </CodeListItem>
                <CodeListItem CodedValue="PROMYLE" Rank="478">
                    <Decode>
                        <TranslatedText xml:lang="en">PROMYLE</TranslatedText>
                    </Decode>
                </CodeListItem>
                <CodeListItem CodedValue="PROPOX" Rank="479">
                    <Decode>
                        <TranslatedText xml:lang="en">PROPOX</TranslatedText>
                    </Decode>
                </CodeListItem>
                <CodeListItem CodedValue="PROT" Rank="480">
                    <Decode>
                        <TranslatedText xml:lang="en">PROT</TranslatedText>
                    </Decode>
                </CodeListItem>
                <CodeListItem CodedValue="PROTCRT" Rank="481">
                    <Decode>
                        <TranslatedText xml:lang="en">PROTCRT</TranslatedText>
                    </Decode>
                </CodeListItem>
                <CodeListItem CodedValue="PSA" Rank="482">
                    <Decode>
                        <TranslatedText xml:lang="en">PSA</TranslatedText>
                    </Decode>
                </CodeListItem>
                <CodeListItem CodedValue="PSDEPHD" Rank="483">
                    <Decode>
                        <TranslatedText xml:lang="en">PSDEPHD</TranslatedText>
                    </Decode>
                </CodeListItem>
                <CodeListItem CodedValue="PT" Rank="484">
                    <Decode>
                        <TranslatedText xml:lang="en">PT</TranslatedText>
                    </Decode>
                </CodeListItem>
                <CodeListItem CodedValue="PTF1_2" Rank="485">
                    <Decode>
                        <TranslatedText xml:lang="en">PTF1_2</TranslatedText>
                    </Decode>
                </CodeListItem>
                <CodeListItem CodedValue="PTHCT" Rank="486">
                    <Decode>
                        <TranslatedText xml:lang="en">PTHCT</TranslatedText>
                    </Decode>
                </CodeListItem>
                <CodeListItem CodedValue="PTHFG" Rank="487">
                    <Decode>
                        <TranslatedText xml:lang="en">PTHFG</TranslatedText>
                    </Decode>
                </CodeListItem>
                <CodeListItem CodedValue="PTHI" Rank="488">
                    <Decode>
                        <TranslatedText xml:lang="en">PTHI</TranslatedText>
                    </Decode>
                </CodeListItem>
                <CodeListItem CodedValue="PTHMM" Rank="489">
                    <Decode>
                        <TranslatedText xml:lang="en">PTHMM</TranslatedText>
                    </Decode>
                </CodeListItem>
                <CodeListItem CodedValue="PTHNT" Rank="490">
                    <Decode>
                        <TranslatedText xml:lang="en">PTHNT</TranslatedText>
                    </Decode>
                </CodeListItem>
                <CodeListItem CodedValue="PYRIDNLN" Rank="491">
                    <Decode>
                        <TranslatedText xml:lang="en">PYRIDNLN</TranslatedText>
                    </Decode>
                </CodeListItem>
                <CodeListItem CodedValue="PYY" Rank="492">
                    <Decode>
                        <TranslatedText xml:lang="en">PYY</TranslatedText>
                    </Decode>
                </CodeListItem>
                <CodeListItem CodedValue="RANTES" Rank="493">
                    <Decode>
                        <TranslatedText xml:lang="en">RANTES</TranslatedText>
                    </Decode>
                </CodeListItem>
                <CodeListItem CodedValue="RBC" Rank="494">
                    <Decode>
                        <TranslatedText xml:lang="en">RBC</TranslatedText>
                    </Decode>
                </CodeListItem>
                <CodeListItem CodedValue="RBCNUC" Rank="495">
                    <Decode>
                        <TranslatedText xml:lang="en">RBCNUC</TranslatedText>
                    </Decode>
                </CodeListItem>
                <CodeListItem CodedValue="RBCNUCLE" Rank="496">
                    <Decode>
                        <TranslatedText xml:lang="en">RBCNUCLE</TranslatedText>
                    </Decode>
                </CodeListItem>
                <CodeListItem CodedValue="RBCNURBC" Rank="497">
                    <Decode>
                        <TranslatedText xml:lang="en">RBCNURBC</TranslatedText>
                    </Decode>
                </CodeListItem>
                <CodeListItem CodedValue="RDW" Rank="498">
                    <Decode>
                        <TranslatedText xml:lang="en">RDW</TranslatedText>
                    </Decode>
                </CodeListItem>
                <CodeListItem CodedValue="RENIN" Rank="499">
                    <Decode>
                        <TranslatedText xml:lang="en">RENIN</TranslatedText>
                    </Decode>
                </CodeListItem>
                <CodeListItem CodedValue="RESISTIN" Rank="500">
                    <Decode>
                        <TranslatedText xml:lang="en">RESISTIN</TranslatedText>
                    </Decode>
                </CodeListItem>
                <CodeListItem CodedValue="RETI" Rank="501">
                    <Decode>
                        <TranslatedText xml:lang="en">RETI</TranslatedText>
                    </Decode>
                </CodeListItem>
                <CodeListItem CodedValue="RETIRBC" Rank="502">
                    <Decode>
                        <TranslatedText xml:lang="en">RETIRBC</TranslatedText>
                    </Decode>
                </CodeListItem>
                <CodeListItem CodedValue="RF" Rank="503">
                    <Decode>
                        <TranslatedText xml:lang="en">RF</TranslatedText>
                    </Decode>
                </CodeListItem>
                <CodeListItem CodedValue="ROULEAUX" Rank="504">
                    <Decode>
                        <TranslatedText xml:lang="en">ROULEAUX</TranslatedText>
                    </Decode>
                </CodeListItem>
                <CodeListItem CodedValue="RPR" Rank="505">
                    <Decode>
                        <TranslatedText xml:lang="en">RPR</TranslatedText>
                    </Decode>
                </CodeListItem>
                <CodeListItem CodedValue="RT3" Rank="506">
                    <Decode>
                        <TranslatedText xml:lang="en">RT3</TranslatedText>
                    </Decode>
                </CodeListItem>
                <CodeListItem CodedValue="SCF" Rank="507">
                    <Decode>
                        <TranslatedText xml:lang="en">SCF</TranslatedText>
                    </Decode>
                </CodeListItem>
                <CodeListItem CodedValue="SCHISTO" Rank="508">
                    <Decode>
                        <TranslatedText xml:lang="en">SCHISTO</TranslatedText>
                    </Decode>
                </CodeListItem>
                <CodeListItem CodedValue="SCKCERBC" Rank="509">
                    <Decode>
                        <TranslatedText xml:lang="en">SCKCERBC</TranslatedText>
                    </Decode>
                </CodeListItem>
                <CodeListItem CodedValue="SCKLCE" Rank="510">
                    <Decode>
                        <TranslatedText xml:lang="en">SCKLCE</TranslatedText>
                    </Decode>
                </CodeListItem>
                <CodeListItem CodedValue="SDH" Rank="511">
                    <Decode>
                        <TranslatedText xml:lang="en">SDH</TranslatedText>
                    </Decode>
                </CodeListItem>
                <CodeListItem CodedValue="SECRETIN" Rank="512">
                    <Decode>
                        <TranslatedText xml:lang="en">SECRETIN</TranslatedText>
                    </Decode>
                </CodeListItem>
                <CodeListItem CodedValue="SEZCE" Rank="513">
                    <Decode>
                        <TranslatedText xml:lang="en">SEZCE</TranslatedText>
                    </Decode>
                </CodeListItem>
                <CodeListItem CodedValue="SEZCELY" Rank="514">
                    <Decode>
                        <TranslatedText xml:lang="en">SEZCELY</TranslatedText>
                    </Decode>
                </CodeListItem>
                <CodeListItem CodedValue="SHBG" Rank="515">
                    <Decode>
                        <TranslatedText xml:lang="en">SHBG</TranslatedText>
                    </Decode>
                </CodeListItem>
                <CodeListItem CodedValue="SIXMAM" Rank="516">
                    <Decode>
                        <TranslatedText xml:lang="en">SIXMAM</TranslatedText>
                    </Decode>
                </CodeListItem>
                <CodeListItem CodedValue="SMDGCE" Rank="517">
                    <Decode>
                        <TranslatedText xml:lang="en">SMDGCE</TranslatedText>
                    </Decode>
                </CodeListItem>
                <CodeListItem CodedValue="SODIUM" Rank="518">
                    <Decode>
                        <TranslatedText xml:lang="en">SODIUM</TranslatedText>
                    </Decode>
                </CodeListItem>
                <CodeListItem CodedValue="SOMATRO" Rank="519">
                    <Decode>
                        <TranslatedText xml:lang="en">SOMATRO</TranslatedText>
                    </Decode>
                </CodeListItem>
                <CodeListItem CodedValue="SPERM" Rank="520">
                    <Decode>
                        <TranslatedText xml:lang="en">SPERM</TranslatedText>
                    </Decode>
                </CodeListItem>
                <CodeListItem CodedValue="SPGRAV" Rank="521">
                    <Decode>
                        <TranslatedText xml:lang="en">SPGRAV</TranslatedText>
                    </Decode>
                </CodeListItem>
                <CodeListItem CodedValue="SPHERO" Rank="522">
                    <Decode>
                        <TranslatedText xml:lang="en">SPHERO</TranslatedText>
                    </Decode>
                </CodeListItem>
                <CodeListItem CodedValue="SRTONIN" Rank="523">
                    <Decode>
                        <TranslatedText xml:lang="en">SRTONIN</TranslatedText>
                    </Decode>
                </CodeListItem>
                <CodeListItem CodedValue="STOMCY" Rank="524">
                    <Decode>
                        <TranslatedText xml:lang="en">STOMCY</TranslatedText>
                    </Decode>
                </CodeListItem>
                <CodeListItem CodedValue="T3" Rank="525">
                    <Decode>
                        <TranslatedText xml:lang="en">T3</TranslatedText>
                    </Decode>
                </CodeListItem>
