<?xml version="1.0" encoding="UTF-8"?>

<ODM xmlns="http://www.cdisc.org/ns/odm/v1.3" xmlns:xs="http://www.w3.org/2001/XMLSchema-instance" xmlns:nciodm="http://ncicb.nci.nih.gov/xml/odm/EVS/CDISC" xs:schemaLocation="http://www.nci.nih.gov/EVS/CDISC ../schema/controlledterminology1-0-0.xsd" FileType="Snapshot" FileOID="CDISC_CT.SEND.2013-12-20" Granularity="Metadata" CreationDateTime="2013-12-16T15:40:27" AsOfDateTime="2013-12-20T00:00:00" ODMVersion="1.3.1" Originator="CDISC XML Technologies Team (Terminology2ODM converter)" SourceSystem="NCI Thesaurus" SourceSystemVersion="2013-12-20">
    <Study OID="CDISC_CT.SEND.2013-12-20">
        <GlobalVariables>
            <StudyName>CDISC SEND Controlled Terminology</StudyName>
            <StudyDescription>CDISC SEND Controlled Terminology, 2013-12-20</StudyDescription>
            <ProtocolName>CDISC SEND Controlled Terminology</ProtocolName>
        </GlobalVariables>
        <MetaDataVersion OID="CDISC_CT_MetaDataVersion.SEND.2013-12-20" Name="CDISC SEND Controlled Terminology" Description="CDISC SEND Controlled Terminology, 2013-12-20">
            <CodeList OID="CL.C66781.AGEU" Name="Age Unit" DataType="text" nciodm:ExtCodeID="C66781" nciodm:CodeListExtensible="No">
                <Description>
                    <TranslatedText xml:lang="en">Those units of time that are routinely used to express the age of a subject.</TranslatedText>
                </Description>
                <EnumeratedItem CodedValue="DAYS" nciodm:ExtCodeID="C25301">
                    <nciodm:CDISCSynonym>Day</nciodm:CDISCSynonym>
                    <nciodm:CDISCDefinition>The time for Earth to make a complete rotation on its axis; ordinarily divided into twenty-four hours. This also refers to a specific day. (NCI)</nciodm:CDISCDefinition>
                    <nciodm:PreferredTerm>Day</nciodm:PreferredTerm>
                </EnumeratedItem>
                <EnumeratedItem CodedValue="HOURS" nciodm:ExtCodeID="C25529">
                    <nciodm:CDISCSynonym>Hour</nciodm:CDISCSynonym>
                    <nciodm:CDISCSynonym>hr</nciodm:CDISCSynonym>
                    <nciodm:CDISCDefinition>A unit measure of time equal to 3,600 seconds or 60 minutes. It is approximately 1/24 of a median day. (NCI)</nciodm:CDISCDefinition>
                    <nciodm:PreferredTerm>Hour</nciodm:PreferredTerm>
                </EnumeratedItem>
                <EnumeratedItem CodedValue="MONTHS" nciodm:ExtCodeID="C29846">
                    <nciodm:CDISCSynonym>Month</nciodm:CDISCSynonym>
                    <nciodm:CDISCDefinition>One of the 12 divisions of a year as determined by a calendar. It corresponds to the unit of time of approximately to one cycle of the moon's phases, about 30 days or 4 weeks. (NCI)</nciodm:CDISCDefinition>
                    <nciodm:PreferredTerm>Month</nciodm:PreferredTerm>
                </EnumeratedItem>
                <EnumeratedItem CodedValue="WEEKS" nciodm:ExtCodeID="C29844">
                    <nciodm:CDISCSynonym>Week</nciodm:CDISCSynonym>
                    <nciodm:CDISCDefinition>Any period of seven consecutive days. (NCI)</nciodm:CDISCDefinition>
                    <nciodm:PreferredTerm>Week</nciodm:PreferredTerm>
                </EnumeratedItem>
                <EnumeratedItem CodedValue="YEARS" nciodm:ExtCodeID="C29848">
                    <nciodm:CDISCSynonym>Year</nciodm:CDISCSynonym>
                    <nciodm:CDISCDefinition>The period of time that it takes for Earth to make a complete revolution around the sun, approximately 365 days; a specific one year period. (NCI)</nciodm:CDISCDefinition>
                    <nciodm:PreferredTerm>Year</nciodm:PreferredTerm>
                </EnumeratedItem>
                <nciodm:CDISCSubmissionValue>AGEU</nciodm:CDISCSubmissionValue>
                <nciodm:CDISCSynonym>Age Unit</nciodm:CDISCSynonym>
                <nciodm:PreferredTerm>CDISC SDTM Age Unit Terminology</nciodm:PreferredTerm>
            </CodeList>
            <CodeList OID="CL.C88026.BODSYS" Name="Body System" DataType="text" nciodm:ExtCodeID="C88026" nciodm:CodeListExtensible="Yes">
                <Description>
                    <TranslatedText xml:lang="en">The terminology that includes concepts relevant to anatomical structure that consists of organs and organ subclasses responsible for certain body functions.</TranslatedText>
                </Description>
                <EnumeratedItem CodedValue="CARDIOVASCULAR SYSTEM" nciodm:ExtCodeID="C35552">
                    <nciodm:CDISCDefinition>Symptoms, physical examination results, and/or laboratory test results related to the cardiovascular system. (NCI)</nciodm:CDISCDefinition>
                    <nciodm:PreferredTerm>Cardiovascular System Finding</nciodm:PreferredTerm>
                </EnumeratedItem>
                <EnumeratedItem CodedValue="ENDOCRINE SYSTEM" nciodm:ExtCodeID="C36285">
                    <nciodm:CDISCDefinition>Symptoms, physical examination results, and/or laboratory test results related to the endocrine system. (NCI)</nciodm:CDISCDefinition>
                    <nciodm:PreferredTerm>Endocrine System Finding</nciodm:PreferredTerm>
                </EnumeratedItem>
                <EnumeratedItem CodedValue="GASTROINTESTINAL SYSTEM" nciodm:ExtCodeID="C36279">
                    <nciodm:CDISCDefinition>Symptoms, physical examination results, and/or laboratory test results related to the gastrointestinal system. (NCI)</nciodm:CDISCDefinition>
                    <nciodm:PreferredTerm>Gastrointestinal System Finding</nciodm:PreferredTerm>
                </EnumeratedItem>
                <EnumeratedItem CodedValue="HEMATOPOIETIC SYSTEM" nciodm:ExtCodeID="C36289">
                    <nciodm:CDISCDefinition>Symptoms, physical examination results, and/or laboratory test results related to the hematopoietic system. (NCI)</nciodm:CDISCDefinition>
                    <nciodm:PreferredTerm>Hematopoietic System Finding</nciodm:PreferredTerm>
                </EnumeratedItem>
                <EnumeratedItem CodedValue="IMMUNE SYSTEM" nciodm:ExtCodeID="C39723">
                    <nciodm:CDISCDefinition>Symptoms, physical examination results, and/or laboratory test results related to the immune system. (NCI)</nciodm:CDISCDefinition>
                    <nciodm:PreferredTerm>Immune System Finding</nciodm:PreferredTerm>
                </EnumeratedItem>
                <EnumeratedItem CodedValue="INTEGUMENTARY SYSTEM" nciodm:ExtCodeID="C36281">
                    <nciodm:CDISCDefinition>Symptoms, physical examination results, and/or laboratory test results related to the integumentary system. (NCI)</nciodm:CDISCDefinition>
                    <nciodm:PreferredTerm>Integumentary System Finding</nciodm:PreferredTerm>
                </EnumeratedItem>
                <EnumeratedItem CodedValue="MUSCULOSKELETAL SYSTEM" nciodm:ExtCodeID="C36288">
                    <nciodm:CDISCDefinition>Symptoms, physical examination results, and/or laboratory test results related to the musculoskeletal system, also including connective and soft tissue.</nciodm:CDISCDefinition>
                    <nciodm:PreferredTerm>Connective and Soft Tissue Finding</nciodm:PreferredTerm>
                </EnumeratedItem>
                <EnumeratedItem CodedValue="NERVOUS SYSTEM" nciodm:ExtCodeID="C36280">
                    <nciodm:CDISCDefinition>Symptoms, physical examination results, and/or laboratory test results related to the nervous system. (NCI)</nciodm:CDISCDefinition>
                    <nciodm:PreferredTerm>Nervous System Finding</nciodm:PreferredTerm>
                </EnumeratedItem>
                <EnumeratedItem CodedValue="REPRODUCTIVE SYSTEM" nciodm:ExtCodeID="C36284">
                    <nciodm:CDISCDefinition>Symptoms, physical examination results, and/or laboratory test results related to the reproductive system. (NCI)</nciodm:CDISCDefinition>
                    <nciodm:PreferredTerm>Reproductive System Finding</nciodm:PreferredTerm>
                </EnumeratedItem>
                <EnumeratedItem CodedValue="RESPIRATORY SYSTEM" nciodm:ExtCodeID="C45233">
                    <nciodm:CDISCDefinition>Symptoms, physical examination results, and/or laboratory test results related to the respiratory system. (NCI)</nciodm:CDISCDefinition>
                    <nciodm:PreferredTerm>Respiratory System Finding</nciodm:PreferredTerm>
                </EnumeratedItem>
                <EnumeratedItem CodedValue="SPECIAL SENSES SYSTEM" nciodm:ExtCodeID="C36283">
                    <nciodm:CDISCDefinition>Symptoms, physical examination results, and/or laboratory test results related to the organs of special sense. (NCI)</nciodm:CDISCDefinition>
                    <nciodm:PreferredTerm>Eye and Ear Finding</nciodm:PreferredTerm>
                </EnumeratedItem>
                <EnumeratedItem CodedValue="URINARY SYSTEM" nciodm:ExtCodeID="C36286">
                    <nciodm:CDISCDefinition>Symptoms, physical examination results, and/or laboratory test results related to the urinary system.</nciodm:CDISCDefinition>
                    <nciodm:PreferredTerm>Urinary Tract Finding</nciodm:PreferredTerm>
                </EnumeratedItem>
                <nciodm:CDISCSubmissionValue>BODSYS</nciodm:CDISCSubmissionValue>
                <nciodm:CDISCSynonym>Body System</nciodm:CDISCSynonym>
                <nciodm:PreferredTerm>CDISC SEND Body System Terminology</nciodm:PreferredTerm>
            </CodeList>
            <CodeList OID="CL.C89960.BGTESTCD" Name="Body Weight Gain Test Code" DataType="text" nciodm:ExtCodeID="C89960" nciodm:CodeListExtensible="Yes">
                <Description>
                    <TranslatedText xml:lang="en">Terminology for the test codes concerned with the increase in overall body mass.</TranslatedText>
                </Description>
                <EnumeratedItem CodedValue="BWGAIN" nciodm:ExtCodeID="C62754">
                    <nciodm:CDISCSynonym>Body Weight Gain</nciodm:CDISCSynonym>
                    <nciodm:CDISCDefinition>A change in overall body weight, relative to the beginning of the collection period.</nciodm:CDISCDefinition>
                    <nciodm:PreferredTerm>Weight Gain</nciodm:PreferredTerm>
                </EnumeratedItem>
                <EnumeratedItem CodedValue="BWGAINA" nciodm:ExtCodeID="C90363">
                    <nciodm:CDISCSynonym>Average Body Weight Gain</nciodm:CDISCSynonym>
                    <nciodm:CDISCDefinition>The mean value of the amount of weight change over a period of time, relative to the beginning of the collection period.</nciodm:CDISCDefinition>
                    <nciodm:PreferredTerm>Average Body Weight Gain</nciodm:PreferredTerm>
                </EnumeratedItem>
                <EnumeratedItem CodedValue="BWGAINP" nciodm:ExtCodeID="C90434">
                    <nciodm:CDISCSynonym>Percentage Body Weight Gain</nciodm:CDISCSynonym>
                    <nciodm:CDISCDefinition>The amount of weight change over a period of time in relation to the total weight, relative to the beginning of the collection period.</nciodm:CDISCDefinition>
                    <nciodm:PreferredTerm>Percentage Body Weight Gain</nciodm:PreferredTerm>
                </EnumeratedItem>
                <nciodm:CDISCSubmissionValue>BGTESTCD</nciodm:CDISCSubmissionValue>
                <nciodm:CDISCSynonym>Body Weight Gain Test Code</nciodm:CDISCSynonym>
                <nciodm:PreferredTerm>CDISC SEND Body Weight Gain Test Code Terminology</nciodm:PreferredTerm>
            </CodeList>
            <CodeList OID="CL.C89959.BGTEST" Name="Body Weight Gain Test Name" DataType="text" nciodm:ExtCodeID="C89959" nciodm:CodeListExtensible="Yes">
                <Description>
                    <TranslatedText xml:lang="en">Terminology for the test names concerned with the increase in overall body mass.</TranslatedText>
                </Description>
                <EnumeratedItem CodedValue="Average Body Weight Gain" nciodm:ExtCodeID="C90363">
                    <nciodm:CDISCSynonym>Average Body Weight Gain</nciodm:CDISCSynonym>
                    <nciodm:CDISCDefinition>The mean value of the amount of weight change over a period of time, relative to the beginning of the collection period.</nciodm:CDISCDefinition>
                    <nciodm:PreferredTerm>Average Body Weight Gain</nciodm:PreferredTerm>
                </EnumeratedItem>
                <EnumeratedItem CodedValue="Body Weight Gain" nciodm:ExtCodeID="C62754">
                    <nciodm:CDISCSynonym>Body Weight Gain</nciodm:CDISCSynonym>
                    <nciodm:CDISCDefinition>A change in overall body weight, relative to the beginning of the collection period.</nciodm:CDISCDefinition>
                    <nciodm:PreferredTerm>Weight Gain</nciodm:PreferredTerm>
                </EnumeratedItem>
                <EnumeratedItem CodedValue="Percentage Body Weight Gain" nciodm:ExtCodeID="C90434">
                    <nciodm:CDISCSynonym>Percentage Body Weight Gain</nciodm:CDISCSynonym>
                    <nciodm:CDISCDefinition>The amount of weight change over a period of time in relation to the total weight, relative to the beginning of the collection period.</nciodm:CDISCDefinition>
                    <nciodm:PreferredTerm>Percentage Body Weight Gain</nciodm:PreferredTerm>
                </EnumeratedItem>
                <nciodm:CDISCSubmissionValue>BGTEST</nciodm:CDISCSubmissionValue>
                <nciodm:CDISCSynonym>Body Weight Gain Test Name</nciodm:CDISCSynonym>
                <nciodm:PreferredTerm>CDISC SEND Body Weight Gain Test Name Terminology</nciodm:PreferredTerm>
            </CodeList>
            <CodeList OID="CL.C89962.BWTESTCD" Name="Body Weight Test Code" DataType="text" nciodm:ExtCodeID="C89962" nciodm:CodeListExtensible="Yes">
                <Description>
                    <TranslatedText xml:lang="en">Terminology for the test codes concerned with the measurement of body mass.</TranslatedText>
                </Description>
                <EnumeratedItem CodedValue="BW" nciodm:ExtCodeID="C81328">
                    <nciodm:CDISCSynonym>Body Weight</nciodm:CDISCSynonym>
                    <nciodm:CDISCDefinition>The weight of a subject. (NCI)</nciodm:CDISCDefinition>
                    <nciodm:PreferredTerm>Body Weight</nciodm:PreferredTerm>
                </EnumeratedItem>
                <EnumeratedItem CodedValue="TERMBW" nciodm:ExtCodeID="C90464">
                    <nciodm:CDISCSynonym>Terminal Body Weight</nciodm:CDISCSynonym>
                    <nciodm:CDISCDefinition>The weight of a subject at a specified end point. (NCI)</nciodm:CDISCDefinition>
                    <nciodm:PreferredTerm>Terminal Body Weight</nciodm:PreferredTerm>
                </EnumeratedItem>
                <nciodm:CDISCSubmissionValue>BWTESTCD</nciodm:CDISCSubmissionValue>
                <nciodm:CDISCSynonym>Body Weight Test Code</nciodm:CDISCSynonym>
                <nciodm:PreferredTerm>CDISC SEND Body Weight Test Code Terminology</nciodm:PreferredTerm>
            </CodeList>
            <CodeList OID="CL.C89961.BWTEST" Name="Body Weight Test Name" DataType="text" nciodm:ExtCodeID="C89961" nciodm:CodeListExtensible="Yes">
                <Description>
                    <TranslatedText xml:lang="en">Terminology for the test names concerned with the measurement of body mass.</TranslatedText>
                </Description>
                <EnumeratedItem CodedValue="Body Weight" nciodm:ExtCodeID="C81328">
                    <nciodm:CDISCSynonym>Body Weight</nciodm:CDISCSynonym>
                    <nciodm:CDISCDefinition>The weight of a subject. (NCI)</nciodm:CDISCDefinition>
                    <nciodm:PreferredTerm>Body Weight</nciodm:PreferredTerm>
                </EnumeratedItem>
                <EnumeratedItem CodedValue="Terminal Body Weight" nciodm:ExtCodeID="C90464">
                    <nciodm:CDISCSynonym>Terminal Body Weight</nciodm:CDISCSynonym>
                    <nciodm:CDISCDefinition>The weight of a subject at a specified end point. (NCI)</nciodm:CDISCDefinition>
                    <nciodm:PreferredTerm>Terminal Body Weight</nciodm:PreferredTerm>
                </EnumeratedItem>
                <nciodm:CDISCSubmissionValue>BWTEST</nciodm:CDISCSubmissionValue>
                <nciodm:CDISCSynonym>Body Weight Test Name</nciodm:CDISCSynonym>
                <nciodm:PreferredTerm>CDISC SEND Body Weight Test Name Terminology</nciodm:PreferredTerm>
            </CodeList>
            <CodeList OID="CL.C89963.CLCAT" Name="Category for Clinical Observation" DataType="text" nciodm:ExtCodeID="C89963" nciodm:CodeListExtensible="Yes">
                <Description>
                    <TranslatedText xml:lang="en">Terminology related to classifications that describe and group clinical observations.</TranslatedText>
                </Description>
                <EnumeratedItem CodedValue="CLINICAL SIGNS" nciodm:ExtCodeID="C100104">
                    <nciodm:CDISCSynonym>Clinical Signs</nciodm:CDISCSynonym>
                    <nciodm:CDISCDefinition>Objective evidence of disease perceptible to the examiner (sign) and subjective evidence of disease perceived by the subject (symptom).</nciodm:CDISCDefinition>
                    <nciodm:PreferredTerm>Sign or Symptom</nciodm:PreferredTerm>
                </EnumeratedItem>
                <EnumeratedItem CodedValue="DERMAL" nciodm:ExtCodeID="C25478">
                    <nciodm:CDISCSynonym>Dermal</nciodm:CDISCSynonym>
                    <nciodm:CDISCDefinition>Of or relating to or located in the dermis. When used in the context of clinical observations, dermal may also include findings related to other components of the skin.</nciodm:CDISCDefinition>
                    <nciodm:PreferredTerm>Dermal</nciodm:PreferredTerm>
                </EnumeratedItem>
                <EnumeratedItem CodedValue="OPHTHALMOLOGY" nciodm:ExtCodeID="C16939">
                    <nciodm:CDISCSynonym>Ophthalmology</nciodm:CDISCSynonym>
                    <nciodm:CDISCDefinition>A medical specialty concerned with the structure and function of the eye and the medical and surgical treatment of its defects and diseases. (NCI)</nciodm:CDISCDefinition>
                    <nciodm:PreferredTerm>Ophthalmology</nciodm:PreferredTerm>
                </EnumeratedItem>
                <EnumeratedItem CodedValue="PHYSICAL EXAM" nciodm:ExtCodeID="C20989">
                    <nciodm:CDISCSynonym>Physical Exam</nciodm:CDISCSynonym>
                    <nciodm:CDISCDefinition>A systemic evaluation of the body and its functions using visual inspection, palpation, percussion and auscultation. The purpose is to determine the presence or absence of physical signs of disease or abnormality for an individual's health assessment.</nciodm:CDISCDefinition>
                    <nciodm:PreferredTerm>Physical Examination</nciodm:PreferredTerm>
                </EnumeratedItem>
                <nciodm:CDISCSubmissionValue>CLCAT</nciodm:CDISCSubmissionValue>
                <nciodm:CDISCSynonym>Category for Clinical Observation</nciodm:CDISCSynonym>
                <nciodm:PreferredTerm>CDISC SEND Category for Clinical Observation Terminology</nciodm:PreferredTerm>
            </CodeList>
            <CodeList OID="CL.C90018.CSTATE" Name="Consciousness State" DataType="text" nciodm:ExtCodeID="C90018" nciodm:CodeListExtensible="Yes">
                <Description>
                    <TranslatedText xml:lang="en">Terminology related to the sense of awareness of self and of the environment.</TranslatedText>
                </Description>
                <EnumeratedItem CodedValue="CONSCIOUS" nciodm:ExtCodeID="C88434">
                    <nciodm:CDISCSynonym>Conscious State</nciodm:CDISCSynonym>
                    <nciodm:CDISCDefinition>A level of awareness that can be described as being alert. (NCI)</nciodm:CDISCDefinition>
                    <nciodm:PreferredTerm>Conscious State</nciodm:PreferredTerm>
                </EnumeratedItem>
                <EnumeratedItem CodedValue="DEPRESSED" nciodm:ExtCodeID="C78253">
                    <nciodm:CDISCSynonym>Depressed Level of Consciousness</nciodm:CDISCSynonym>
                    <nciodm:CDISCDefinition>A neurologic state characterized by decreased ability to perceive and respond. (NCI)</nciodm:CDISCDefinition>
                    <nciodm:PreferredTerm>Depressed Level Of Consciousness</nciodm:PreferredTerm>
                </EnumeratedItem>
                <EnumeratedItem CodedValue="SEMI-CONSCIOUS" nciodm:ExtCodeID="C88440">
                    <nciodm:CDISCSynonym>Semi-conscious State</nciodm:CDISCSynonym>
                    <nciodm:CDISCDefinition>A level of awareness that can be described as varied and intermittent periods of consciousness and unconsciousness.</nciodm:CDISCDefinition>
                    <nciodm:PreferredTerm>Semi-conscious</nciodm:PreferredTerm>
                </EnumeratedItem>
                <EnumeratedItem CodedValue="UNCONSCIOUS" nciodm:ExtCodeID="C50635">
                    <nciodm:CDISCSynonym>Unconscious State</nciodm:CDISCSynonym>
                    <nciodm:CDISCSynonym>Loss of Consciousness</nciodm:CDISCSynonym>
                    <nciodm:CDISCDefinition>The neurologic status characterized by the occurrence of a loss of the ability to perceive and respond.</nciodm:CDISCDefinition>
                    <nciodm:PreferredTerm>Loss of Consciousness</nciodm:PreferredTerm>
                </EnumeratedItem>
                <EnumeratedItem CodedValue="UNSPECIFIED" nciodm:ExtCodeID="C90482">
                    <nciodm:CDISCSynonym>Unspecified State of Consciousness</nciodm:CDISCSynonym>
                    <nciodm:CDISCDefinition>The state of consciousness is not controlled. The possibility exists for having multiple conscious states over a period of time. (NCI)</nciodm:CDISCDefinition>
                    <nciodm:PreferredTerm>Unspecified State of Consciousness</nciodm:PreferredTerm>
                </EnumeratedItem>
                <nciodm:CDISCSubmissionValue>CSTATE</nciodm:CDISCSubmissionValue>
                <nciodm:CDISCSynonym>Consciousness State</nciodm:CDISCSynonym>
                <nciodm:PreferredTerm>CDISC SEND Consciousness State Terminology</nciodm:PreferredTerm>
            </CodeList>
            <CodeList OID="CL.C66786.COUNTRY" Name="Country" DataType="text" nciodm:ExtCodeID="C66786" nciodm:CodeListExtensible="No">
                <Description>
                    <TranslatedText xml:lang="en">A collective generic term that refers here to a wide variety of dependencies, areas of special sovereignty, uninhabited islands, and other entities in addition to the traditional countries or independent states. (NCI)</TranslatedText>
                </Description>
                <EnumeratedItem CodedValue="ABW" nciodm:ExtCodeID="C17884">
                    <nciodm:CDISCSynonym>ARUBA</nciodm:CDISCSynonym>
                    <nciodm:CDISCDefinition>Island in the Caribbean Sea, north of Venezuela. (NCI)</nciodm:CDISCDefinition>
                    <nciodm:PreferredTerm>Aruba</nciodm:PreferredTerm>
                </EnumeratedItem>
                <EnumeratedItem CodedValue="AFG" nciodm:ExtCodeID="C16267">
                    <nciodm:CDISCSynonym>AFGHANISTAN</nciodm:CDISCSynonym>
                    <nciodm:CDISCDefinition>A country in Southern Asia, north and west of Pakistan, east of Iran. (NCI)</nciodm:CDISCDefinition>
                    <nciodm:PreferredTerm>Afghanistan</nciodm:PreferredTerm>
                </EnumeratedItem>
                <EnumeratedItem CodedValue="AGO" nciodm:ExtCodeID="C16292">
                    <nciodm:CDISCSynonym>ANGOLA</nciodm:CDISCSynonym>
                    <nciodm:CDISCDefinition>A country in Southern Africa, bordering the South Atlantic Ocean, between Namibia and Democratic Republic of the Congo. (NCI)</nciodm:CDISCDefinition>
                    <nciodm:PreferredTerm>Angola</nciodm:PreferredTerm>
                </EnumeratedItem>
                <EnumeratedItem CodedValue="AIA" nciodm:ExtCodeID="C20133">
                    <nciodm:CDISCSynonym>ANGUILLA</nciodm:CDISCSynonym>
                    <nciodm:CDISCDefinition>An island in the Caribbean Sea, east of Puerto Rico. (NCI)</nciodm:CDISCDefinition>
                    <nciodm:PreferredTerm>Anguilla</nciodm:PreferredTerm>
                </EnumeratedItem>
                <EnumeratedItem CodedValue="ALA" nciodm:ExtCodeID="C44481">
                    <nciodm:CDISCSynonym>ALAND ISLANDS</nciodm:CDISCSynonym>
                    <nciodm:CDISCDefinition>An archipelago in the Baltic Sea at the entrance to the Gulf of Bothnia between Sweden and Finland. (NCI)</nciodm:CDISCDefinition>
                    <nciodm:PreferredTerm>Aland Islands</nciodm:PreferredTerm>
                </EnumeratedItem>
                <EnumeratedItem CodedValue="ALB" nciodm:ExtCodeID="C16271">
                    <nciodm:CDISCSynonym>ALBANIA</nciodm:CDISCSynonym>
                    <nciodm:CDISCDefinition>A country in Southeastern Europe, bordering the Adriatic Sea and Ionian Sea, between Greece and Serbia and Montenegro. (NCI)</nciodm:CDISCDefinition>
                    <nciodm:PreferredTerm>Albania</nciodm:PreferredTerm>
                </EnumeratedItem>
                <EnumeratedItem CodedValue="AND" nciodm:ExtCodeID="C16289">
                    <nciodm:CDISCSynonym>ANDORRA</nciodm:CDISCSynonym>
                    <nciodm:CDISCDefinition>A country in Southwestern Europe, between France and Spain. (NCI)</nciodm:CDISCDefinition>
                    <nciodm:PreferredTerm>Andorra</nciodm:PreferredTerm>
                </EnumeratedItem>
                <EnumeratedItem CodedValue="ARE" nciodm:ExtCodeID="C17232">
                    <nciodm:CDISCSynonym>UNITED ARAB EMIRATES</nciodm:CDISCSynonym>
                    <nciodm:CDISCDefinition>A country in the Middle East, bordering the Gulf of Oman and the Persian Gulf, between Oman and Saudi Arabia. (NCI)</nciodm:CDISCDefinition>
                    <nciodm:PreferredTerm>United Arab Emirates</nciodm:PreferredTerm>
                </EnumeratedItem>
                <EnumeratedItem CodedValue="ARG" nciodm:ExtCodeID="C16305">
                    <nciodm:CDISCSynonym>ARGENTINA</nciodm:CDISCSynonym>
                    <nciodm:CDISCDefinition>A country in Southern South America, bordering the South Atlantic Ocean, between Chile and Uruguay. (NCI)</nciodm:CDISCDefinition>
                    <nciodm:PreferredTerm>Argentina</nciodm:PreferredTerm>
                </EnumeratedItem>
                <EnumeratedItem CodedValue="ARM" nciodm:ExtCodeID="C16306">
                    <nciodm:CDISCSynonym>ARMENIA</nciodm:CDISCSynonym>
                    <nciodm:CDISCDefinition>A country in Southwestern Asia, east of Turkey. (NCI)</nciodm:CDISCDefinition>
                    <nciodm:PreferredTerm>Armenia</nciodm:PreferredTerm>
                </EnumeratedItem>
                <EnumeratedItem CodedValue="ASM" nciodm:ExtCodeID="C17739">
                    <nciodm:CDISCSynonym>AMERICAN SAMOA</nciodm:CDISCSynonym>
                    <nciodm:CDISCDefinition>A group of islands in the South Pacific Ocean, about half way between Hawaii and New Zealand. (NCI)</nciodm:CDISCDefinition>
                    <nciodm:PreferredTerm>American Samoa</nciodm:PreferredTerm>
                </EnumeratedItem>
                <EnumeratedItem CodedValue="ATA" nciodm:ExtCodeID="C18007">
                    <nciodm:CDISCSynonym>ANTARCTICA</nciodm:CDISCSynonym>
                    <nciodm:CDISCDefinition>The continent lying mostly south of the Antarctic Circle. (NCI)</nciodm:CDISCDefinition>
                    <nciodm:PreferredTerm>Antarctica</nciodm:PreferredTerm>
                </EnumeratedItem>
                <EnumeratedItem CodedValue="ATF" nciodm:ExtCodeID="C20105">
                    <nciodm:CDISCSynonym>FRENCH SOUTHERN TERRITORIES</nciodm:CDISCSynonym>
                    <nciodm:CDISCDefinition>Islands in the southern Indian Ocean, south of Africa, about equidistant between Africa, Antarctica, and Australia. (NCI)</nciodm:CDISCDefinition>
                    <nciodm:PreferredTerm>French Southern and Antarctic Lands</nciodm:PreferredTerm>
                </EnumeratedItem>
                <EnumeratedItem CodedValue="ATG" nciodm:ExtCodeID="C16303">
                    <nciodm:CDISCSynonym>ANTIGUA AND BARBUDA</nciodm:CDISCSynonym>
                    <nciodm:CDISCDefinition>Islands between the Caribbean Sea and the North Atlantic Ocean, east-southeast of Puerto Rico. (NCI)</nciodm:CDISCDefinition>
                    <nciodm:PreferredTerm>Antigua and Barbuda</nciodm:PreferredTerm>
                </EnumeratedItem>
                <EnumeratedItem CodedValue="AUS" nciodm:ExtCodeID="C16311">
                    <nciodm:CDISCSynonym>AUSTRALIA</nciodm:CDISCSynonym>
                    <nciodm:CDISCDefinition>The continent between the Indian Ocean and the South Pacific Ocean. (NCI)</nciodm:CDISCDefinition>
                    <nciodm:PreferredTerm>Australia</nciodm:PreferredTerm>
                </EnumeratedItem>
                <EnumeratedItem CodedValue="AUT" nciodm:ExtCodeID="C16312">
                    <nciodm:CDISCSynonym>AUSTRIA</nciodm:CDISCSynonym>
                    <nciodm:CDISCDefinition>A country in Central Europe, north of Italy and Slovenia. (NCI)</nciodm:CDISCDefinition>
                    <nciodm:PreferredTerm>Austria</nciodm:PreferredTerm>
                </EnumeratedItem>
                <EnumeratedItem CodedValue="AZE" nciodm:ExtCodeID="C16316">
                    <nciodm:CDISCSynonym>AZERBAIJAN</nciodm:CDISCSynonym>
                    <nciodm:CDISCDefinition>A country in Southwestern Asia, bordering the Caspian Sea, between Iran and Russia. (NCI)</nciodm:CDISCDefinition>
                    <nciodm:PreferredTerm>Azerbaijan</nciodm:PreferredTerm>
                </EnumeratedItem>
                <EnumeratedItem CodedValue="BDI" nciodm:ExtCodeID="C16371">
                    <nciodm:CDISCSynonym>BURUNDI</nciodm:CDISCSynonym>
                    <nciodm:CDISCDefinition>A country in Central Africa, east of Democratic Republic of the Congo. (NCI)</nciodm:CDISCDefinition>
                    <nciodm:PreferredTerm>Burundi</nciodm:PreferredTerm>
                </EnumeratedItem>
                <EnumeratedItem CodedValue="BEL" nciodm:ExtCodeID="C16329">
                    <nciodm:CDISCSynonym>BELGIUM</nciodm:CDISCSynonym>
                    <nciodm:CDISCDefinition>A country in Western Europe, bordering the North Sea, between France and the Netherlands. (NCI)</nciodm:CDISCDefinition>
                    <nciodm:PreferredTerm>Belgium</nciodm:PreferredTerm>
                </EnumeratedItem>
                <EnumeratedItem CodedValue="BEN" nciodm:ExtCodeID="C16333">
                    <nciodm:CDISCSynonym>BENIN REPUBLIC</nciodm:CDISCSynonym>
                    <nciodm:CDISCSynonym>BENIN</nciodm:CDISCSynonym>
                    <nciodm:CDISCDefinition>A country in Western Africa, bordering the North Atlantic Ocean, between Nigeria and Togo. (NCI)</nciodm:CDISCDefinition>
                    <nciodm:PreferredTerm>Benin</nciodm:PreferredTerm>
                </EnumeratedItem>
                <EnumeratedItem CodedValue="BES" nciodm:ExtCodeID="C101224">
                    <nciodm:CDISCSynonym>BONAIRE, SINT EUSTATIUS AND SABA</nciodm:CDISCSynonym>
                    <nciodm:CDISCDefinition>Three Caribbean islands that are part of the Lesser Antilles; Bonaire is east of Aruba and Curacao off the coast of Venezuela, Sint Eustatius and Saba are located south of Sint Maarten and northeast of Saint Kitts and Nevis. (NCI)</nciodm:CDISCDefinition>
                    <nciodm:PreferredTerm>Bonaire, Sint Eustatius and Saba</nciodm:PreferredTerm>
                </EnumeratedItem>
                <EnumeratedItem CodedValue="BFA" nciodm:ExtCodeID="C16369">
                    <nciodm:CDISCSynonym>BURKINA FASO</nciodm:CDISCSynonym>
                    <nciodm:CDISCDefinition>A country in Western Africa, north of Ghana. (NCI)</nciodm:CDISCDefinition>
                    <nciodm:PreferredTerm>Burkina Faso</nciodm:PreferredTerm>
                </EnumeratedItem>
                <EnumeratedItem CodedValue="BGD" nciodm:ExtCodeID="C16323">
                    <nciodm:CDISCSynonym>BANGLADESH</nciodm:CDISCSynonym>
                    <nciodm:CDISCDefinition>A country in Southern Asia, bordering the Bay of Bengal, between Burma and India. (NCI)</nciodm:CDISCDefinition>
                    <nciodm:PreferredTerm>Bangladesh</nciodm:PreferredTerm>
                </EnumeratedItem>
                <EnumeratedItem CodedValue="BGR" nciodm:ExtCodeID="C16368">
                    <nciodm:CDISCSynonym>BULGARIA</nciodm:CDISCSynonym>
                    <nciodm:CDISCDefinition>A country in Southeastern Europe, bordering the Black Sea, between Romania and Turkey. (NCI)</nciodm:CDISCDefinition>
                    <nciodm:PreferredTerm>Bulgaria</nciodm:PreferredTerm>
                </EnumeratedItem>
                <EnumeratedItem CodedValue="BHR" nciodm:ExtCodeID="C16322">
                    <nciodm:CDISCSynonym>BAHRAIN</nciodm:CDISCSynonym>
                    <nciodm:CDISCDefinition>An archipelago in the Persian Gulf, east of Saudi Arabia. (NCI)</nciodm:CDISCDefinition>
                    <nciodm:PreferredTerm>Bahrain</nciodm:PreferredTerm>
                </EnumeratedItem>
                <EnumeratedItem CodedValue="BHS" nciodm:ExtCodeID="C16321">
                    <nciodm:CDISCSynonym>BAHAMAS</nciodm:CDISCSynonym>
                    <nciodm:CDISCDefinition>A chain of islands in the North Atlantic Ocean, southeast of Florida. (NCI)</nciodm:CDISCDefinition>
                    <nciodm:PreferredTerm>Bahamas</nciodm:PreferredTerm>
                </EnumeratedItem>
                <EnumeratedItem CodedValue="BIH" nciodm:ExtCodeID="C16361">
                    <nciodm:CDISCSynonym>BOSNIA-HERZEGOVINA</nciodm:CDISCSynonym>
                    <nciodm:CDISCSynonym>BOSNIA AND HERZEGOVINA</nciodm:CDISCSynonym>
                    <nciodm:CDISCDefinition>A country in Southeastern Europe, bordering the Adriatic Sea and Croatia. (NCI)</nciodm:CDISCDefinition>
                    <nciodm:PreferredTerm>Bosnia and Herzegovina</nciodm:PreferredTerm>
                </EnumeratedItem>
                <EnumeratedItem CodedValue="BLM" nciodm:ExtCodeID="C83609">
                    <nciodm:CDISCSynonym>SAINT BARTHELEMY</nciodm:CDISCSynonym>
                    <nciodm:CDISCDefinition>An island in the Caribbean sea, between Saint Martin and Saint Kitts and Nevis. (NCI)</nciodm:CDISCDefinition>
                    <nciodm:PreferredTerm>Saint Barthelemy</nciodm:PreferredTerm>
                </EnumeratedItem>
                <EnumeratedItem CodedValue="BLR" nciodm:ExtCodeID="C16372">
                    <nciodm:CDISCSynonym>BELARUS</nciodm:CDISCSynonym>
                    <nciodm:CDISCDefinition>A country in Eastern Europe, east of Poland. (NCI)</nciodm:CDISCDefinition>
                    <nciodm:PreferredTerm>Belarus</nciodm:PreferredTerm>
                </EnumeratedItem>
                <EnumeratedItem CodedValue="BLZ" nciodm:ExtCodeID="C16331">
                    <nciodm:CDISCSynonym>BELIZE</nciodm:CDISCSynonym>
                    <nciodm:CDISCDefinition>A country in Central America, bordering the Caribbean Sea, between Guatemala and Mexico. (NCI)</nciodm:CDISCDefinition>
                    <nciodm:PreferredTerm>Belize</nciodm:PreferredTerm>
                </EnumeratedItem>
                <EnumeratedItem CodedValue="BMU" nciodm:ExtCodeID="C16334">
                    <nciodm:CDISCSynonym>BERMUDA</nciodm:CDISCSynonym>
                    <nciodm:CDISCDefinition>A group of islands in the North Atlantic Ocean, east of South Carolina. (NCI)</nciodm:CDISCDefinition>
                    <nciodm:PreferredTerm>Bermuda</nciodm:PreferredTerm>
                </EnumeratedItem>
                <EnumeratedItem CodedValue="BOL" nciodm:ExtCodeID="C16359">
                    <nciodm:CDISCSynonym>BOLIVIA</nciodm:CDISCSynonym>
                    <nciodm:CDISCSynonym>BOLIVIA, PLURINATIONAL STATE OF</nciodm:CDISCSynonym>
                    <nciodm:CDISCDefinition>A country in Central South America, southwest of Brazil. (NCI)</nciodm:CDISCDefinition>
                    <nciodm:PreferredTerm>Bolivia, Plurinational State of</nciodm:PreferredTerm>
                </EnumeratedItem>
                <EnumeratedItem CodedValue="BRA" nciodm:ExtCodeID="C16364">
                    <nciodm:CDISCSynonym>BRAZIL</nciodm:CDISCSynonym>
                    <nciodm:CDISCDefinition>A country in Eastern South America, bordering the Atlantic Ocean. (NCI)</nciodm:CDISCDefinition>
                    <nciodm:PreferredTerm>Brazil</nciodm:PreferredTerm>
                </EnumeratedItem>
                <EnumeratedItem CodedValue="BRB" nciodm:ExtCodeID="C16324">
                    <nciodm:CDISCSynonym>BARBADOS</nciodm:CDISCSynonym>
                    <nciodm:CDISCDefinition>An island between the Caribbean Sea and the North Atlantic Ocean, northeast of Venezuela. (NCI)</nciodm:CDISCDefinition>
                    <nciodm:PreferredTerm>Barbados</nciodm:PreferredTerm>
                </EnumeratedItem>
                <EnumeratedItem CodedValue="BRN" nciodm:ExtCodeID="C16367">
                    <nciodm:CDISCSynonym>BRUNEI</nciodm:CDISCSynonym>
                    <nciodm:CDISCSynonym>BRUNEI DARUSSALAM</nciodm:CDISCSynonym>
                    <nciodm:CDISCDefinition>A country in Southeastern Asia, bordering the South China Sea and Malaysia. (NCI)</nciodm:CDISCDefinition>
                    <nciodm:PreferredTerm>Brunei Darussalam</nciodm:PreferredTerm>
                </EnumeratedItem>
                <EnumeratedItem CodedValue="BTN" nciodm:ExtCodeID="C16336">
                    <nciodm:CDISCSynonym>BHUTAN</nciodm:CDISCSynonym>
                    <nciodm:CDISCDefinition>A country in Southern Asia, between China and India. (NCI)</nciodm:CDISCDefinition>
                    <nciodm:PreferredTerm>Bhutan</nciodm:PreferredTerm>
                </EnumeratedItem>
                <EnumeratedItem CodedValue="BVT" nciodm:ExtCodeID="C20104">
                    <nciodm:CDISCSynonym>BOUVET ISLAND</nciodm:CDISCSynonym>
                    <nciodm:CDISCDefinition>An island in the South Atlantic Ocean, south-southwest of the Cape of Good Hope (South Africa). (NCI)</nciodm:CDISCDefinition>
                    <nciodm:PreferredTerm>Bouvet Island</nciodm:PreferredTerm>
                </EnumeratedItem>
                <EnumeratedItem CodedValue="BWA" nciodm:ExtCodeID="C16363">
                    <nciodm:CDISCSynonym>BOTSWANA</nciodm:CDISCSynonym>
                    <nciodm:CDISCDefinition>A country in Southern Africa, north of South Africa. (NCI)</nciodm:CDISCDefinition>
                    <nciodm:PreferredTerm>Botswana</nciodm:PreferredTerm>
                </EnumeratedItem>
                <EnumeratedItem CodedValue="CAF" nciodm:ExtCodeID="C16409">
                    <nciodm:CDISCSynonym>CENTRAL AFRICAN REPUBLIC</nciodm:CDISCSynonym>
                    <nciodm:CDISCDefinition>A country in Central Africa, north of Democratic Republic of the Congo. (NCI)</nciodm:CDISCDefinition>
                    <nciodm:PreferredTerm>Central African Republic</nciodm:PreferredTerm>
                </EnumeratedItem>
                <EnumeratedItem CodedValue="CAN" nciodm:ExtCodeID="C16380">
                    <nciodm:CDISCSynonym>CANADA</nciodm:CDISCSynonym>
                    <nciodm:CDISCDefinition>A country in Northern North America, bordering the North Atlantic Ocean on the east, North Pacific Ocean on the west, and the Arctic Ocean on the north, north of the conterminous US. (NCI)</nciodm:CDISCDefinition>
                    <nciodm:PreferredTerm>Canada</nciodm:PreferredTerm>
                </EnumeratedItem>
                <EnumeratedItem CodedValue="CCK" nciodm:ExtCodeID="C16445">
                    <nciodm:CDISCSynonym>COCOS (KEELING) ISLANDS</nciodm:CDISCSynonym>
                    <nciodm:CDISCDefinition>A group of islands in the Indian Ocean, south of Indonesia, about halfway from Australia to Sri Lanka. (NCI)</nciodm:CDISCDefinition>
                    <nciodm:PreferredTerm>Cocos (Keeling) Islands</nciodm:PreferredTerm>
                </EnumeratedItem>
                <EnumeratedItem CodedValue="CHE" nciodm:ExtCodeID="C17181">
                    <nciodm:CDISCSynonym>SWITZERLAND</nciodm:CDISCSynonym>
                    <nciodm:CDISCDefinition>A country in Central Europe, east of France, north of Italy. (NCI)</nciodm:CDISCDefinition>
                    <nciodm:PreferredTerm>Switzerland</nciodm:PreferredTerm>
                </EnumeratedItem>
                <EnumeratedItem CodedValue="CHL" nciodm:ExtCodeID="C16427">
                    <nciodm:CDISCSynonym>CHILE</nciodm:CDISCSynonym>
                    <nciodm:CDISCDefinition>A country in Southern South America, bordering the South Atlantic Ocean and South Pacific Ocean, between Argentina and Peru. (NCI)</nciodm:CDISCDefinition>
                    <nciodm:PreferredTerm>Chile</nciodm:PreferredTerm>
                </EnumeratedItem>
                <EnumeratedItem CodedValue="CHN" nciodm:ExtCodeID="C16428">
                    <nciodm:CDISCSynonym>CHINA</nciodm:CDISCSynonym>
                    <nciodm:CDISCDefinition>A country in Eastern Asia, bordering the East China Sea, Korea Bay, Yellow Sea, and South China Sea, between North Korea and Vietnam. (NCI)</nciodm:CDISCDefinition>
                    <nciodm:PreferredTerm>China</nciodm:PreferredTerm>
                </EnumeratedItem>
                <EnumeratedItem CodedValue="CIV" nciodm:ExtCodeID="C16762">
                    <nciodm:CDISCSynonym>COTE D'IVOIRE</nciodm:CDISCSynonym>
                    <nciodm:CDISCDefinition>A country in Western Africa, bordering the North Atlantic Ocean, between Ghana and Liberia. (NCI)</nciodm:CDISCDefinition>
                    <nciodm:PreferredTerm>Cote d'Ivoire</nciodm:PreferredTerm>
                </EnumeratedItem>
                <EnumeratedItem CodedValue="CMR" nciodm:ExtCodeID="C16379">
                    <nciodm:CDISCSynonym>CAMEROON</nciodm:CDISCSynonym>
                    <nciodm:CDISCDefinition>A country in Western Africa, bordering the Bight of Biafra, between Equatorial Guinea and Nigeria. (NCI)</nciodm:CDISCDefinition>
                    <nciodm:PreferredTerm>Cameroon</nciodm:PreferredTerm>
                </EnumeratedItem>
                <EnumeratedItem CodedValue="COD" nciodm:ExtCodeID="C17266">
                    <nciodm:CDISCSynonym>DEMOCRATIC REPUBLIC OF THE CONGO</nciodm:CDISCSynonym>
                    <nciodm:CDISCSynonym>CONGO, THE DEMOCRATIC REPUBLIC OF</nciodm:CDISCSynonym>
                    <nciodm:CDISCDefinition>A country in Central Africa, northeast of Angola. (NCI)</nciodm:CDISCDefinition>
                    <nciodm:PreferredTerm>Congo, the Democratic Republic of the</nciodm:PreferredTerm>
                </EnumeratedItem>
                <EnumeratedItem CodedValue="COG" nciodm:ExtCodeID="C16467">
                    <nciodm:CDISCSynonym>CONGO</nciodm:CDISCSynonym>
                    <nciodm:CDISCDefinition>A country in Western Africa, bordering the South Atlantic Ocean, between Angola and Gabon. (NCI)</nciodm:CDISCDefinition>
                    <nciodm:PreferredTerm>Congo</nciodm:PreferredTerm>
                </EnumeratedItem>
                <EnumeratedItem CodedValue="COK" nciodm:ExtCodeID="C16469">
                    <nciodm:CDISCSynonym>COOK ISLANDS</nciodm:CDISCSynonym>
                    <nciodm:CDISCDefinition>A group of islands in the South Pacific Ocean, about one-half of the way from Hawaii to New Zealand. (NCI)</nciodm:CDISCDefinition>
                    <nciodm:PreferredTerm>Cook Islands</nciodm:PreferredTerm>
                </EnumeratedItem>
                <EnumeratedItem CodedValue="COL" nciodm:ExtCodeID="C16449">
                    <nciodm:CDISCSynonym>COLOMBIA</nciodm:CDISCSynonym>
                    <nciodm:CDISCDefinition>A country in Northern South America, bordering the Caribbean Sea, between Panama and Venezuela, and bordering the North Pacific Ocean, between Ecuador and Panama. (NCI)</nciodm:CDISCDefinition>
                    <nciodm:PreferredTerm>Colombia</nciodm:PreferredTerm>
                </EnumeratedItem>
                <EnumeratedItem CodedValue="COM" nciodm:ExtCodeID="C16458">
                    <nciodm:CDISCSynonym>COMOROS</nciodm:CDISCSynonym>
                    <nciodm:CDISCDefinition>A group of islands in the Mozambique Channel, about two-thirds of the way between northern Madagascar and northern Mozambique. (NCI)</nciodm:CDISCDefinition>
                    <nciodm:PreferredTerm>Comoros</nciodm:PreferredTerm>
                </EnumeratedItem>
                <EnumeratedItem CodedValue="CPV" nciodm:ExtCodeID="C16382">
                    <nciodm:CDISCSynonym>CAPE VERDE</nciodm:CDISCSynonym>
                    <nciodm:CDISCDefinition>A group of islands in the North Atlantic Ocean, west of Senegal. (NCI)</nciodm:CDISCDefinition>
                    <nciodm:PreferredTerm>Cape Verde</nciodm:PreferredTerm>
                </EnumeratedItem>
                <EnumeratedItem CodedValue="CRI" nciodm:ExtCodeID="C16470">
                    <nciodm:CDISCSynonym>COSTA RICA</nciodm:CDISCSynonym>
                    <nciodm:CDISCDefinition>A country in Central America, bordering both the Caribbean Sea and the North Pacific Ocean, between Nicaragua and Panama. (NCI)</nciodm:CDISCDefinition>
                    <nciodm:PreferredTerm>Costa Rica</nciodm:PreferredTerm>
                </EnumeratedItem>
                <EnumeratedItem CodedValue="CUB" nciodm:ExtCodeID="C16477">
                    <nciodm:CDISCSynonym>CUBA</nciodm:CDISCSynonym>
                    <nciodm:CDISCDefinition>An island between the Caribbean Sea and the North Atlantic Ocean, 150 km south of Key West, Florida. (NCI)</nciodm:CDISCDefinition>
                    <nciodm:PreferredTerm>Cuba</nciodm:PreferredTerm>
                </EnumeratedItem>
                <EnumeratedItem CodedValue="CUW" nciodm:ExtCodeID="C101225">
                    <nciodm:CDISCSynonym>CURACAO</nciodm:CDISCSynonym>
                    <nciodm:CDISCDefinition>An island nation located in the Caribbean Sea off the coast of Venezuela. (NCI)</nciodm:CDISCDefinition>
                    <nciodm:PreferredTerm>Curacao</nciodm:PreferredTerm>
                </EnumeratedItem>
                <EnumeratedItem CodedValue="CXR" nciodm:ExtCodeID="C44482">
                    <nciodm:CDISCSynonym>CHRISTMAS ISLAND</nciodm:CDISCSynonym>
                    <nciodm:CDISCDefinition>An Australian-administered island in the eastern Indian Ocean south of Java, Indonesia. (NCI)</nciodm:CDISCDefinition>
                    <nciodm:PreferredTerm>Christmas Island</nciodm:PreferredTerm>
                </EnumeratedItem>
                <EnumeratedItem CodedValue="CYM" nciodm:ExtCodeID="C16391">
                    <nciodm:CDISCSynonym>CAYMAN ISLANDS</nciodm:CDISCSynonym>
                    <nciodm:CDISCDefinition>An island group in the Caribbean Sea, nearly one-half of the way from Cuba to Honduras. (NCI)</nciodm:CDISCDefinition>
                    <nciodm:PreferredTerm>Cayman Islands</nciodm:PreferredTerm>
                </EnumeratedItem>
                <EnumeratedItem CodedValue="CYP" nciodm:ExtCodeID="C16480">
                    <nciodm:CDISCSynonym>CYPRUS</nciodm:CDISCSynonym>
                    <nciodm:CDISCDefinition>An island in the Mediterranean Sea, south of Turkey. (NCI)</nciodm:CDISCDefinition>
                    <nciodm:PreferredTerm>Cyprus</nciodm:PreferredTerm>
                </EnumeratedItem>
                <EnumeratedItem CodedValue="CZE" nciodm:ExtCodeID="C17668">
                    <nciodm:CDISCSynonym>CZECH REPUBLIC</nciodm:CDISCSynonym>
                    <nciodm:CDISCDefinition>A country in Central Europe, southeast of Germany. (NCI)</nciodm:CDISCDefinition>
                    <nciodm:PreferredTerm>Czech Republic</nciodm:PreferredTerm>
                </EnumeratedItem>
                <EnumeratedItem CodedValue="DEU" nciodm:ExtCodeID="C16636">
                    <nciodm:CDISCSynonym>GERMANY</nciodm:CDISCSynonym>
                    <nciodm:CDISCDefinition>A country in Central Europe, bordering the Baltic Sea and the North Sea, between the Netherlands and Poland, south of Denmark. (NCI)</nciodm:CDISCDefinition>
                    <nciodm:PreferredTerm>Germany</nciodm:PreferredTerm>
                </EnumeratedItem>
                <EnumeratedItem CodedValue="DJI" nciodm:ExtCodeID="C16506">
                    <nciodm:CDISCSynonym>DJIBOUTI</nciodm:CDISCSynonym>
                    <nciodm:CDISCDefinition>A country in Eastern Africa, bordering the Gulf of Aden and the Red Sea, between Eritrea and Somalia. (NCI)</nciodm:CDISCDefinition>
                    <nciodm:PreferredTerm>Djibouti</nciodm:PreferredTerm>
                </EnumeratedItem>
                <EnumeratedItem CodedValue="DMA" nciodm:ExtCodeID="C16519">
                    <nciodm:CDISCSynonym>DOMINICA</nciodm:CDISCSynonym>
                    <nciodm:CDISCDefinition>An island between the Caribbean Sea and the North Atlantic Ocean, about one-half of the way from Puerto Rico to Trinidad and Tobago. (NCI)</nciodm:CDISCDefinition>
                    <nciodm:PreferredTerm>Dominica</nciodm:PreferredTerm>
                </EnumeratedItem>
                <EnumeratedItem CodedValue="DNK" nciodm:ExtCodeID="C16496">
                    <nciodm:CDISCSynonym>DENMARK</nciodm:CDISCSynonym>
                    <nciodm:CDISCDefinition>A country in Northern Europe, bordering the Baltic Sea and the North Sea, on a peninsula north of Germany (Jutland); also includes two major islands (Sjaelland and Fyn). (NCI)</nciodm:CDISCDefinition>
                    <nciodm:PreferredTerm>Denmark</nciodm:PreferredTerm>
                </EnumeratedItem>
                <EnumeratedItem CodedValue="DOM" nciodm:ExtCodeID="C16520">
                    <nciodm:CDISCSynonym>DOMINICAN REPUBLIC</nciodm:CDISCSynonym>
                    <nciodm:CDISCDefinition>A country comprising the eastern two-thirds of the island of Hispaniola, between the Caribbean Sea and the North Atlantic Ocean, east of Haiti. (NCI)</nciodm:CDISCDefinition>
                    <nciodm:PreferredTerm>Dominican Republic</nciodm:PreferredTerm>
                </EnumeratedItem>
                <EnumeratedItem CodedValue="DZA" nciodm:ExtCodeID="C16274">
                    <nciodm:CDISCSynonym>ALGERIA</nciodm:CDISCSynonym>
                    <nciodm:CDISCDefinition>A country in Northern Africa, bordering the Mediterranean Sea, between Morocco and Tunisia. (NCI)</nciodm:CDISCDefinition>
                    <nciodm:PreferredTerm>Algeria</nciodm:PreferredTerm>
                </EnumeratedItem>
                <EnumeratedItem CodedValue="ECU" nciodm:ExtCodeID="C16528">
                    <nciodm:CDISCSynonym>ECUADOR</nciodm:CDISCSynonym>
                    <nciodm:CDISCDefinition>A country in Western South America, bordering the Pacific Ocean at the Equator, between Colombia and Peru. (NCI)</nciodm:CDISCDefinition>
                    <nciodm:PreferredTerm>Ecuador</nciodm:PreferredTerm>
                </EnumeratedItem>
                <EnumeratedItem CodedValue="EGY" nciodm:ExtCodeID="C16530">
                    <nciodm:CDISCSynonym>EGYPT</nciodm:CDISCSynonym>
                    <nciodm:CDISCDefinition>A country in Northern Africa, bordering the Mediterranean Sea, between Libya and the Gaza Strip. (NCI)</nciodm:CDISCDefinition>
                    <nciodm:PreferredTerm>Egypt</nciodm:PreferredTerm>
                </EnumeratedItem>
                <EnumeratedItem CodedValue="ERI" nciodm:ExtCodeID="C16558">
                    <nciodm:CDISCSynonym>ERITREA</nciodm:CDISCSynonym>
                    <nciodm:CDISCDefinition>A country in Eastern Africa, bordering the Red Sea, between Djibouti and Sudan. (NCI)</nciodm:CDISCDefinition>
                    <nciodm:PreferredTerm>Eritrea</nciodm:PreferredTerm>
                </EnumeratedItem>
                <EnumeratedItem CodedValue="ESH" nciodm:ExtCodeID="C20113">
                    <nciodm:CDISCSynonym>WESTERN SAHARA</nciodm:CDISCSynonym>
                    <nciodm:CDISCDefinition>A country in Northern Africa, bordering the North Atlantic Ocean, between Mauritania and Morocco. (NCI)</nciodm:CDISCDefinition>
                    <nciodm:PreferredTerm>Western Sahara</nciodm:PreferredTerm>
                </EnumeratedItem>
                <EnumeratedItem CodedValue="ESP" nciodm:ExtCodeID="C17152">
                    <nciodm:CDISCSynonym>SPAIN</nciodm:CDISCSynonym>
                    <nciodm:CDISCDefinition>A country in Southwestern Europe, bordering the Bay of Biscay, Mediterranean Sea, North Atlantic Ocean, and Pyrenees Mountains, southwest of France. (NCI)</nciodm:CDISCDefinition>
                    <nciodm:PreferredTerm>Spain</nciodm:PreferredTerm>
                </EnumeratedItem>
                <EnumeratedItem CodedValue="EST" nciodm:ExtCodeID="C16562">
                    <nciodm:CDISCSynonym>ESTONIA</nciodm:CDISCSynonym>
                    <nciodm:CDISCDefinition>A country in Eastern Europe, bordering the Baltic Sea and Gulf of Finland, between Latvia and Russia. (NCI)</nciodm:CDISCDefinition>
                    <nciodm:PreferredTerm>Estonia</nciodm:PreferredTerm>
                </EnumeratedItem>
                <EnumeratedItem CodedValue="ETH" nciodm:ExtCodeID="C16563">
                    <nciodm:CDISCSynonym>ETHIOPIA</nciodm:CDISCSynonym>
                    <nciodm:CDISCDefinition>A country in Eastern Africa, west of Somalia. (NCI)</nciodm:CDISCDefinition>
                    <nciodm:PreferredTerm>Ethiopia</nciodm:PreferredTerm>
                </EnumeratedItem>
                <EnumeratedItem CodedValue="FIN" nciodm:ExtCodeID="C16584">
                    <nciodm:CDISCSynonym>FINLAND</nciodm:CDISCSynonym>
                    <nciodm:CDISCDefinition>A country in Northern Europe, bordering the Baltic Sea, Gulf of Bothnia, and Gulf of Finland, between Sweden and Russia. (NCI)</nciodm:CDISCDefinition>
                    <nciodm:PreferredTerm>Finland</nciodm:PreferredTerm>
                </EnumeratedItem>
                <EnumeratedItem CodedValue="FJI" nciodm:ExtCodeID="C16582">
                    <nciodm:CDISCSynonym>FIJI</nciodm:CDISCSynonym>
                    <nciodm:CDISCDefinition>An island group in the South Pacific Ocean, about two-thirds of the way from Hawaii to New Zealand. (NCI)</nciodm:CDISCDefinition>
                    <nciodm:PreferredTerm>Fiji</nciodm:PreferredTerm>
                </EnumeratedItem>
                <EnumeratedItem CodedValue="FLK" nciodm:ExtCodeID="C17954">
                    <nciodm:CDISCSynonym>FALKLAND ISLANDS</nciodm:CDISCSynonym>
                    <nciodm:CDISCSynonym>FALKLAND ISLANDS (MALVINAS)</nciodm:CDISCSynonym>
                    <nciodm:CDISCDefinition>Islands in the South Atlantic Ocean, east of southern Argentina. (NCI)</nciodm:CDISCDefinition>
                    <nciodm:PreferredTerm>Falkland Islands (Malvinas)</nciodm:PreferredTerm>
                </EnumeratedItem>
                <EnumeratedItem CodedValue="FRA" nciodm:ExtCodeID="C16592">
                    <nciodm:CDISCSynonym>FRANCE</nciodm:CDISCSynonym>
                    <nciodm:CDISCDefinition>A country in Western Europe, bordering the Bay of Biscay and English Channel, between Belgium and Spain, southeast of the UK; bordering the Mediterranean Sea, between Italy and Spain. (NCI)</nciodm:CDISCDefinition>
                    <nciodm:PreferredTerm>France</nciodm:PreferredTerm>
                </EnumeratedItem>
                <EnumeratedItem CodedValue="FRO" nciodm:ExtCodeID="C16573">
                    <nciodm:CDISCSynonym>FAROE ISLANDS</nciodm:CDISCSynonym>
                    <nciodm:CDISCDefinition>An island group between the Norwegian Sea and the North Atlantic Ocean, about one-half of the way from Iceland to Norway. (NCI)</nciodm:CDISCDefinition>
                    <nciodm:PreferredTerm>Faroe Islands</nciodm:PreferredTerm>
                </EnumeratedItem>
                <EnumeratedItem CodedValue="FSM" nciodm:ExtCodeID="C17881">
                    <nciodm:CDISCSynonym>MICRONESIA, FEDERATED STATES OF</nciodm:CDISCSynonym>
                    <nciodm:CDISCDefinition>An island group in the North Pacific Ocean, about three-quarters of the way from Hawaii to Indonesia. (NCI)</nciodm:CDISCDefinition>
                    <nciodm:PreferredTerm>Micronesia, Federated States of</nciodm:PreferredTerm>
                </EnumeratedItem>
                <EnumeratedItem CodedValue="GAB" nciodm:ExtCodeID="C16596">
                    <nciodm:CDISCSynonym>GABON</nciodm:CDISCSynonym>
                    <nciodm:CDISCDefinition>A country in Western Africa, bordering the Atlantic Ocean at the Equator, between Republic of the Congo and Equatorial Guinea. (NCI)</nciodm:CDISCDefinition>
                    <nciodm:PreferredTerm>Gabon</nciodm:PreferredTerm>
                </EnumeratedItem>
                <EnumeratedItem CodedValue="GBR" nciodm:ExtCodeID="C17233">
                    <nciodm:CDISCSynonym>UNITED KINGDOM</nciodm:CDISCSynonym>
                    <nciodm:CDISCDefinition>A country in Western Europe, comprising islands, including the northern one-sixth of the island of Ireland, between the North Atlantic Ocean and the North Sea, northwest of France. (NCI)</nciodm:CDISCDefinition>
                    <nciodm:PreferredTerm>United Kingdom</nciodm:PreferredTerm>
                </EnumeratedItem>
                <EnumeratedItem CodedValue="GEO" nciodm:ExtCodeID="C16634">
                    <nciodm:CDISCSynonym>GEORGIA</nciodm:CDISCSynonym>
                    <nciodm:CDISCDefinition>A country in Southwestern Asia, bordering the Black Sea, between Turkey and Russia. (NCI)</nciodm:CDISCDefinition>
                    <nciodm:PreferredTerm>Georgia</nciodm:PreferredTerm>
                </EnumeratedItem>
                <EnumeratedItem CodedValue="GGY" nciodm:ExtCodeID="C64375">
                    <nciodm:CDISCSynonym>GUERNSEY</nciodm:CDISCSynonym>
                    <nciodm:CDISCDefinition>The island of Guernsey and the other Channel Islands represent the last remnants of the medieval Dukedom of Normandy, which held sway in both France and England. Guernsey is a British crown dependency, but is not part of the UK. (NCI)</nciodm:CDISCDefinition>
                    <nciodm:PreferredTerm>Guernsey</nciodm:PreferredTerm>
                </EnumeratedItem>
                <EnumeratedItem CodedValue="GHA" nciodm:ExtCodeID="C26330">
                    <nciodm:CDISCSynonym>GHANA</nciodm:CDISCSynonym>
                    <nciodm:CDISCDefinition>A country in Western Africa, bordering the Gulf of Guinea, between Cote d'Ivoire and Togo. (NCI)</nciodm:CDISCDefinition>
                    <nciodm:PreferredTerm>Ghana</nciodm:PreferredTerm>
                </EnumeratedItem>
                <EnumeratedItem CodedValue="GIB" nciodm:ExtCodeID="C16638">
                    <nciodm:CDISCSynonym>GIBRALTAR</nciodm:CDISCSynonym>
                    <nciodm:CDISCDefinition>A dependency in Southwestern Europe, bordering the Strait of Gibraltar, on the southern coast of Spain. (NCI)</nciodm:CDISCDefinition>
                    <nciodm:PreferredTerm>Gibraltar</nciodm:PreferredTerm>
                </EnumeratedItem>
                <EnumeratedItem CodedValue="GIN" nciodm:ExtCodeID="C16655">
                    <nciodm:CDISCSynonym>GUINEA</nciodm:CDISCSynonym>
                    <nciodm:CDISCDefinition>A country in Western Africa, bordering the North Atlantic Ocean, between Guinea-Bissau and Sierra Leone. (NCI)</nciodm:CDISCDefinition>
                    <nciodm:PreferredTerm>Guinea</nciodm:PreferredTerm>
                </EnumeratedItem>
                <EnumeratedItem CodedValue="GLP" nciodm:ExtCodeID="C16651">
                    <nciodm:CDISCSynonym>GUADELOUPE</nciodm:CDISCSynonym>
                    <nciodm:CDISCDefinition>Islands in the eastern Caribbean Sea, southeast of Puerto Rico. (NCI)</nciodm:CDISCDefinition>
                    <nciodm:PreferredTerm>Guadeloupe</nciodm:PreferredTerm>
                </EnumeratedItem>
                <EnumeratedItem CodedValue="GMB" nciodm:ExtCodeID="C16598">
                    <nciodm:CDISCSynonym>GAMBIA</nciodm:CDISCSynonym>
                    <nciodm:CDISCDefinition>A country in Western Africa, bordering the North Atlantic Ocean and Senegal. (NCI)</nciodm:CDISCDefinition>
                    <nciodm:PreferredTerm>The Gambia</nciodm:PreferredTerm>
                </EnumeratedItem>
                <EnumeratedItem CodedValue="GNB" nciodm:ExtCodeID="C16656">
                    <nciodm:CDISCSynonym>GUINEA-BISSAU</nciodm:CDISCSynonym>
                    <nciodm:CDISCDefinition>A country in Western Africa, bordering the North Atlantic Ocean, between Guinea and Senegal. (NCI)</nciodm:CDISCDefinition>
                    <nciodm:PreferredTerm>Guinea-Bissau</nciodm:PreferredTerm>
                </EnumeratedItem>
                <EnumeratedItem CodedValue="GNQ" nciodm:ExtCodeID="C16557">
                    <nciodm:CDISCSynonym>EQUATORIAL GUINEA</nciodm:CDISCSynonym>
                    <nciodm:CDISCDefinition>A country in Western Africa, bordering the Bight of Biafra, between Cameroon and Gabon; composed of a mainland portion and five inhabited islands. (NCI)</nciodm:CDISCDefinition>
                    <nciodm:PreferredTerm>Equatorial Guinea</nciodm:PreferredTerm>
                </EnumeratedItem>
                <EnumeratedItem CodedValue="GRC" nciodm:ExtCodeID="C16645">
                    <nciodm:CDISCSynonym>GREECE</nciodm:CDISCSynonym>
                    <nciodm:CDISCDefinition>A country in Southern Europe, bordering the Aegean Sea, Ionian Sea, and the Mediterranean Sea, between Albania and Turkey. (NCI)</nciodm:CDISCDefinition>
                    <nciodm:PreferredTerm>Greece</nciodm:PreferredTerm>
                </EnumeratedItem>
                <EnumeratedItem CodedValue="GRD" nciodm:ExtCodeID="C16647">
                    <nciodm:CDISCSynonym>GRENADA</nciodm:CDISCSynonym>
                    <nciodm:CDISCDefinition>An island between the Caribbean Sea and Atlantic Ocean, north of Trinidad and Tobago. (NCI)</nciodm:CDISCDefinition>
                    <nciodm:PreferredTerm>Grenada</nciodm:PreferredTerm>
                </EnumeratedItem>
                <EnumeratedItem CodedValue="GRL" nciodm:ExtCodeID="C16646">
                    <nciodm:CDISCSynonym>GREENLAND</nciodm:CDISCSynonym>
                    <nciodm:CDISCDefinition>An island between the Arctic Ocean and the North Atlantic Ocean, northeast of Canada. (NCI)</nciodm:CDISCDefinition>
                    <nciodm:PreferredTerm>Greenland</nciodm:PreferredTerm>
                </EnumeratedItem>
                <EnumeratedItem CodedValue="GTM" nciodm:ExtCodeID="C16654">
                    <nciodm:CDISCSynonym>GUATEMALA</nciodm:CDISCSynonym>
                    <nciodm:CDISCDefinition>A country in Central America, bordering the Caribbean Sea, between Honduras and Belize and bordering the North Pacific Ocean, between El Salvador and Mexico. (NCI)</nciodm:CDISCDefinition>
                    <nciodm:PreferredTerm>Guatemala</nciodm:PreferredTerm>
                </EnumeratedItem>
                <EnumeratedItem CodedValue="GUF" nciodm:ExtCodeID="C16593">
                    <nciodm:CDISCSynonym>FRENCH GUIANA</nciodm:CDISCSynonym>
                    <nciodm:CDISCDefinition>A country in Northern South America, bordering the North Atlantic Ocean, between Brazil and Suriname. (NCI)</nciodm:CDISCDefinition>
                    <nciodm:PreferredTerm>French Guiana</nciodm:PreferredTerm>
                </EnumeratedItem>
                <EnumeratedItem CodedValue="GUM" nciodm:ExtCodeID="C16652">
                    <nciodm:CDISCSynonym>GUAM</nciodm:CDISCSynonym>
                    <nciodm:CDISCDefinition>Island in the North Pacific Ocean, about three-quarters of the way from Hawaii to the Philippines. (NCI)</nciodm:CDISCDefinition>
                    <nciodm:PreferredTerm>Guam</nciodm:PreferredTerm>
                </EnumeratedItem>
                <EnumeratedItem CodedValue="GUY" nciodm:ExtCodeID="C16657">
                    <nciodm:CDISCSynonym>GUYANA</nciodm:CDISCSynonym>
                    <nciodm:CDISCDefinition>A country in Northern South America, bordering the North Atlantic Ocean, between Suriname and Venezuela. (NCI)</nciodm:CDISCDefinition>
                    <nciodm:PreferredTerm>Guyana</nciodm:PreferredTerm>
                </EnumeratedItem>
                <EnumeratedItem CodedValue="HKG" nciodm:ExtCodeID="C16695">
                    <nciodm:CDISCSynonym>HONG KONG</nciodm:CDISCSynonym>
                    <nciodm:CDISCDefinition>A special administrative region of China, bordering the South China Sea and China. (NCI)</nciodm:CDISCDefinition>
                    <nciodm:PreferredTerm>Hong Kong</nciodm:PreferredTerm>
                </EnumeratedItem>
                <EnumeratedItem CodedValue="HMD" nciodm:ExtCodeID="C20106">
                    <nciodm:CDISCSynonym>HEARD ISLAND AND MCDONALD ISLANDS</nciodm:CDISCSynonym>
                    <nciodm:CDISCDefinition>Islands in the Indian Ocean, about two-thirds of the way from Madagascar to Antarctica. (NCI)</nciodm:CDISCDefinition>
                    <nciodm:PreferredTerm>Heard Island and McDonald Islands</nciodm:PreferredTerm>
                </EnumeratedItem>
                <EnumeratedItem CodedValue="HND" nciodm:ExtCodeID="C16694">
                    <nciodm:CDISCSynonym>HONDURAS</nciodm:CDISCSynonym>
                    <nciodm:CDISCDefinition>A country in Central America, bordering the Caribbean Sea, between Guatemala and Nicaragua and bordering the North Pacific Ocean, between El Salvador and Nicaragua. (NCI)</nciodm:CDISCDefinition>
                    <nciodm:PreferredTerm>Honduras</nciodm:PreferredTerm>
                </EnumeratedItem>
                <EnumeratedItem CodedValue="HRV" nciodm:ExtCodeID="C16474">
                    <nciodm:CDISCSynonym>CROATIA</nciodm:CDISCSynonym>
                    <nciodm:CDISCDefinition>A country in Southeastern Europe, bordering the Adriatic Sea, between Bosnia and Herzegovina and Slovenia. (NCI)</nciodm:CDISCDefinition>
                    <nciodm:PreferredTerm>Croatia</nciodm:PreferredTerm>
                </EnumeratedItem>
                <EnumeratedItem CodedValue="HTI" nciodm:ExtCodeID="C16660">
                    <nciodm:CDISCSynonym>HAITI</nciodm:CDISCSynonym>
                    <nciodm:CDISCDefinition>A country comprising the western one-third of the island of Hispaniola, between the Caribbean Sea and the North Atlantic Ocean, west of the Dominican Republic. (NCI)</nciodm:CDISCDefinition>
                    <nciodm:PreferredTerm>Haiti</nciodm:PreferredTerm>
                </EnumeratedItem>
                <EnumeratedItem CodedValue="HUN" nciodm:ExtCodeID="C16699">
                    <nciodm:CDISCSynonym>HUNGARY</nciodm:CDISCSynonym>
                    <nciodm:CDISCDefinition>A country in Central Europe, northwest of Romania. (NCI)</nciodm:CDISCDefinition>
                    <nciodm:PreferredTerm>Hungary</nciodm:PreferredTerm>
                </EnumeratedItem>
                <EnumeratedItem CodedValue="IDN" nciodm:ExtCodeID="C16728">
                    <nciodm:CDISCSynonym>INDONESIA</nciodm:CDISCSynonym>
                    <nciodm:CDISCDefinition>A country in Southeastern Asia, comprising the archipelago between the Indian Ocean and the Pacific Ocean. (NCI)</nciodm:CDISCDefinition>
                    <nciodm:PreferredTerm>Indonesia</nciodm:PreferredTerm>
                </EnumeratedItem>
                <EnumeratedItem CodedValue="IMN" nciodm:ExtCodeID="C44480">
                    <nciodm:CDISCSynonym>ISLE OF MAN</nciodm:CDISCSynonym>
                    <nciodm:CDISCDefinition>An island in the Irish Sea, between Great Britain and Ireland. (NCI)</nciodm:CDISCDefinition>
                    <nciodm:PreferredTerm>Isle of Man</nciodm:PreferredTerm>
                </EnumeratedItem>
                <EnumeratedItem CodedValue="IND" nciodm:ExtCodeID="C16727">
                    <nciodm:CDISCSynonym>INDIA</nciodm:CDISCSynonym>
                    <nciodm:CDISCDefinition>A country in Southern Asia, bordering the Arabian Sea and the Bay of Bengal, between Burma and Pakistan. (NCI)</nciodm:CDISCDefinition>
                    <nciodm:PreferredTerm>India</nciodm:PreferredTerm>
                </EnumeratedItem>
                <EnumeratedItem CodedValue="IOT" nciodm:ExtCodeID="C16365">
                    <nciodm:CDISCSynonym>BRITISH INDIAN OCEAN TERRITORY</nciodm:CDISCSynonym>
                    <nciodm:CDISCDefinition>An archipelago in the Indian Ocean, about one-half the way from Africa to Indonesia. (NCI)</nciodm:CDISCDefinition>
                    <nciodm:PreferredTerm>British Indian Ocean Territory</nciodm:PreferredTerm>
                </EnumeratedItem>
                <EnumeratedItem CodedValue="IRL" nciodm:ExtCodeID="C16757">
                    <nciodm:CDISCSynonym>IRELAND</nciodm:CDISCSynonym>
                    <nciodm:CDISCDefinition>A country in Western Europe, occupying five-sixths of the island of Ireland in the North Atlantic Ocean, west of Great Britain. (NCI)</nciodm:CDISCDefinition>
                    <nciodm:PreferredTerm>Ireland</nciodm:PreferredTerm>
                </EnumeratedItem>
                <EnumeratedItem CodedValue="IRN" nciodm:ExtCodeID="C16755">
                    <nciodm:CDISCSynonym>IRAN</nciodm:CDISCSynonym>
                    <nciodm:CDISCDefinition>A country in the Middle East, bordering the Gulf of Oman, the Persian Gulf, and the Caspian Sea, between Iraq and Pakistan. (NCI)</nciodm:CDISCDefinition>
                    <nciodm:PreferredTerm>Iran, Islamic Republic of</nciodm:PreferredTerm>
                </EnumeratedItem>
                <EnumeratedItem CodedValue="IRQ" nciodm:ExtCodeID="C16756">
                    <nciodm:CDISCSynonym>IRAQ</nciodm:CDISCSynonym>
                    <nciodm:CDISCDefinition>A country in the Middle East, bordering the Persian Gulf, between Iran and Kuwait. (NCI)</nciodm:CDISCDefinition>
                    <nciodm:PreferredTerm>Iraq</nciodm:PreferredTerm>
                </EnumeratedItem>
                <EnumeratedItem CodedValue="ISL" nciodm:ExtCodeID="C16704">
                    <nciodm:CDISCSynonym>ICELAND</nciodm:CDISCSynonym>
                    <nciodm:CDISCDefinition>A country in Northern Europe, island between the Greenland Sea and the North Atlantic Ocean, northwest of the UK. (NCI)</nciodm:CDISCDefinition>
                    <nciodm:PreferredTerm>Iceland</nciodm:PreferredTerm>
                </EnumeratedItem>
                <EnumeratedItem CodedValue="ISR" nciodm:ExtCodeID="C16760">
                    <nciodm:CDISCSynonym>ISRAEL</nciodm:CDISCSynonym>
                    <nciodm:CDISCDefinition>A country in the Middle East, bordering the Mediterranean Sea, between Egypt and Lebanon. (NCI)</nciodm:CDISCDefinition>
                    <nciodm:PreferredTerm>Israel</nciodm:PreferredTerm>
                </EnumeratedItem>
                <EnumeratedItem CodedValue="ITA" nciodm:ExtCodeID="C16761">
                    <nciodm:CDISCSynonym>ITALY</nciodm:CDISCSynonym>
                    <nciodm:CDISCDefinition>A country in Southern Europe, occupying a peninsula extending into the central Mediterranean Sea, northeast of Tunisia. (NCI)</nciodm:CDISCDefinition>
                    <nciodm:PreferredTerm>Italy</nciodm:PreferredTerm>
                </EnumeratedItem>
                <EnumeratedItem CodedValue="JAM" nciodm:ExtCodeID="C16763">
                    <nciodm:CDISCSynonym>JAMAICA</nciodm:CDISCSynonym>
                    <nciodm:CDISCDefinition>An island in the Caribbean Sea, south of Cuba. (NCI)</nciodm:CDISCDefinition>
                    <nciodm:PreferredTerm>Jamaica</nciodm:PreferredTerm>
                </EnumeratedItem>
                <EnumeratedItem CodedValue="JEY" nciodm:ExtCodeID="C64374">
                    <nciodm:CDISCSynonym>JERSEY</nciodm:CDISCSynonym>
                    <nciodm:CDISCDefinition>Jersey and the other Channel Islands represent the last remnants of the medieval Dukedom of Normandy that held sway in both France and England. Jersey is a British crown dependency, but is not part of the UK. (NCI)</nciodm:CDISCDefinition>
                    <nciodm:PreferredTerm>Jersey</nciodm:PreferredTerm>
                </EnumeratedItem>
                <EnumeratedItem CodedValue="JOR" nciodm:ExtCodeID="C16765">
                    <nciodm:CDISCSynonym>JORDAN</nciodm:CDISCSynonym>
                    <nciodm:CDISCDefinition>A country in the Middle East, northwest of Saudi Arabia. (NCI)</nciodm:CDISCDefinition>
                    <nciodm:PreferredTerm>Jordan</nciodm:PreferredTerm>
                </EnumeratedItem>
                <EnumeratedItem CodedValue="JPN" nciodm:ExtCodeID="C16764">
                    <nciodm:CDISCSynonym>JAPAN</nciodm:CDISCSynonym>
                    <nciodm:CDISCDefinition>A country in Eastern Asia, occupying an island chain between the North Pacific Ocean and the Sea of Japan, east of the Korean Peninsula. (NCI)</nciodm:CDISCDefinition>
                    <nciodm:PreferredTerm>Japan</nciodm:PreferredTerm>
                </EnumeratedItem>
                <EnumeratedItem CodedValue="KAZ" nciodm:ExtCodeID="C20107">
                    <nciodm:CDISCSynonym>KAZAKHSTAN</nciodm:CDISCSynonym>
                    <nciodm:CDISCDefinition>A country in Central Asia, northwest of China. (NCI)</nciodm:CDISCDefinition>
                    <nciodm:PreferredTerm>Kazakhstan</nciodm:PreferredTerm>
                </EnumeratedItem>
                <EnumeratedItem CodedValue="KEN" nciodm:ExtCodeID="C16769">
                    <nciodm:CDISCSynonym>KENYA</nciodm:CDISCSynonym>
                    <nciodm:CDISCDefinition>A country in Eastern Africa, bordering the Indian Ocean, between Somalia and Tanzania. (NCI)</nciodm:CDISCDefinition>
                    <nciodm:PreferredTerm>Kenya</nciodm:PreferredTerm>
                </EnumeratedItem>
                <EnumeratedItem CodedValue="KGZ" nciodm:ExtCodeID="C16771">
                    <nciodm:CDISCSynonym>KYRGYZSTAN</nciodm:CDISCSynonym>
                    <nciodm:CDISCDefinition>A country in Central Asia, west of China. (NCI)</nciodm:CDISCDefinition>
                    <nciodm:PreferredTerm>Kyrgyzstan</nciodm:PreferredTerm>
                </EnumeratedItem>
                <EnumeratedItem CodedValue="KHM" nciodm:ExtCodeID="C16378">
                    <nciodm:CDISCSynonym>CAMBODIA</nciodm:CDISCSynonym>
                    <nciodm:CDISCDefinition>A country in Southeastern Asia, bordering the Gulf of Thailand, between Thailand, Vietnam, and Laos. (NCI)</nciodm:CDISCDefinition>
                    <nciodm:PreferredTerm>Cambodia</nciodm:PreferredTerm>
                </EnumeratedItem>
                <EnumeratedItem CodedValue="KIR" nciodm:ExtCodeID="C16639">
                    <nciodm:CDISCSynonym>KIRIBATI</nciodm:CDISCSynonym>
                    <nciodm:CDISCDefinition>A group of 33 coral atolls in the Pacific Ocean, straddling the equator; the capital Tarawa is about one-half of the way from Hawaii to Australia. (NCI)</nciodm:CDISCDefinition>
                    <nciodm:PreferredTerm>Kiribati</nciodm:PreferredTerm>
                </EnumeratedItem>
                <EnumeratedItem CodedValue="KNA" nciodm:ExtCodeID="C17885">
                    <nciodm:CDISCSynonym>SAINT KITTS AND NEVIS</nciodm:CDISCSynonym>
                    <nciodm:CDISCDefinition>Islands in the Caribbean Sea, about one-third of the way from Puerto Rico to Trinidad and Tobago. (NCI)</nciodm:CDISCDefinition>
                    <nciodm:PreferredTerm>Saint Kitts and Nevis</nciodm:PreferredTerm>
                </EnumeratedItem>
                <EnumeratedItem CodedValue="KOR" nciodm:ExtCodeID="C16774">
                    <nciodm:CDISCSynonym>SOUTH KOREA</nciodm:CDISCSynonym>
                    <nciodm:CDISCSynonym>KOREA, REPUBLIC OF</nciodm:CDISCSynonym>
                    <nciodm:CDISCDefinition>A country in Eastern Asia, occupying the southern half of the Korean Peninsula, bordering the Sea of Japan and the Yellow Sea. (NCI)</nciodm:CDISCDefinition>
                    <nciodm:PreferredTerm>Korea, Republic of</nciodm:PreferredTerm>
                </EnumeratedItem>
                <EnumeratedItem CodedValue="KWT" nciodm:ExtCodeID="C16775">
                    <nciodm:CDISCSynonym>KUWAIT</nciodm:CDISCSynonym>
                    <nciodm:CDISCDefinition>A country in the Middle East, bordering the Persian Gulf, between Iraq and Saudi Arabia. (NCI)</nciodm:CDISCDefinition>
                    <nciodm:PreferredTerm>Kuwait</nciodm:PreferredTerm>
                </EnumeratedItem>
                <EnumeratedItem CodedValue="LAO" nciodm:ExtCodeID="C16780">
                    <nciodm:CDISCSynonym>LAO PEOPLE'S DEMOCRATIC REPUBLIC</nciodm:CDISCSynonym>
                    <nciodm:CDISCDefinition>A country in Southeastern Asia, northeast of Thailand, west of Vietnam. (NCI)</nciodm:CDISCDefinition>
                    <nciodm:PreferredTerm>Lao People's Democratic Republic</nciodm:PreferredTerm>
                </EnumeratedItem>
                <EnumeratedItem CodedValue="LBN" nciodm:ExtCodeID="C16784">
                    <nciodm:CDISCSynonym>LEBANON</nciodm:CDISCSynonym>
                    <nciodm:CDISCDefinition>A country in the Middle East, bordering the Mediterranean Sea, between Israel and Syria. (NCI)</nciodm:CDISCDefinition>
                    <nciodm:PreferredTerm>Lebanon</nciodm:PreferredTerm>
                </EnumeratedItem>
                <EnumeratedItem CodedValue="LBR" nciodm:ExtCodeID="C16791">
                    <nciodm:CDISCSynonym>LIBERIA</nciodm:CDISCSynonym>
                    <nciodm:CDISCDefinition>A country in Western Africa, bordering the North Atlantic Ocean, between Cote d'Ivoire and Sierra Leone. (NCI)</nciodm:CDISCDefinition>
                    <nciodm:PreferredTerm>Liberia</nciodm:PreferredTerm>
                </EnumeratedItem>
                <EnumeratedItem CodedValue="LBY" nciodm:ExtCodeID="C16793">
                    <nciodm:CDISCSynonym>LIBYA</nciodm:CDISCSynonym>
                    <nciodm:CDISCDefinition>A country in Northern Africa, bordering the Mediterranean Sea, between Egypt and Tunisia. (NCI)</nciodm:CDISCDefinition>
                    <nciodm:PreferredTerm>Libya</nciodm:PreferredTerm>
                </EnumeratedItem>
                <EnumeratedItem CodedValue="LCA" nciodm:ExtCodeID="C17113">
                    <nciodm:CDISCSynonym>SAINT LUCIA</nciodm:CDISCSynonym>
                    <nciodm:CDISCDefinition>A country in the Caribbean, occupying an island between the Caribbean Sea and North Atlantic Ocean, north of Trinidad and Tobago. (NCI)</nciodm:CDISCDefinition>
                    <nciodm:PreferredTerm>Saint Lucia</nciodm:PreferredTerm>
                </EnumeratedItem>
                <EnumeratedItem CodedValue="LIE" nciodm:ExtCodeID="C16794">
                    <nciodm:CDISCSynonym>LIECHTENSTEIN</nciodm:CDISCSynonym>
                    <nciodm:CDISCDefinition>A country in Central Europe, between Austria and Switzerland. (NCI)</nciodm:CDISCDefinition>
                    <nciodm:PreferredTerm>Liechtenstein</nciodm:PreferredTerm>
                </EnumeratedItem>
                <EnumeratedItem CodedValue="LKA" nciodm:ExtCodeID="C17163">
                    <nciodm:CDISCSynonym>SRI LANKA</nciodm:CDISCSynonym>
                    <nciodm:CDISCDefinition>A country in Southern Asia, occupying an island in the Indian Ocean, south of India. (NCI)</nciodm:CDISCDefinition>
                    <nciodm:PreferredTerm>Sri Lanka</nciodm:PreferredTerm>
                </EnumeratedItem>
                <EnumeratedItem CodedValue="LSO" nciodm:ExtCodeID="C16787">
                    <nciodm:CDISCSynonym>LESOTHO</nciodm:CDISCSynonym>
                    <nciodm:CDISCDefinition>A country in Southern Africa, an enclave of South Africa. (NCI)</nciodm:CDISCDefinition>
                    <nciodm:PreferredTerm>Lesotho</nciodm:PreferredTerm>
                </EnumeratedItem>
                <EnumeratedItem CodedValue="LTU" nciodm:ExtCodeID="C16799">
                    <nciodm:CDISCSynonym>LITHUANIA</nciodm:CDISCSynonym>
                    <nciodm:CDISCDefinition>A country in Eastern Europe, bordering the Baltic Sea, between Latvia and Russia. (NCI)</nciodm:CDISCDefinition>
                    <nciodm:PreferredTerm>Lithuania</nciodm:PreferredTerm>
                </EnumeratedItem>
                <EnumeratedItem CodedValue="LUX" nciodm:ExtCodeID="C16803">
                    <nciodm:CDISCSynonym>LUXEMBOURG</nciodm:CDISCSynonym>
                    <nciodm:CDISCDefinition>A country in Western Europe, between France, Belgium, and Germany. (NCI)</nciodm:CDISCDefinition>
                    <nciodm:PreferredTerm>Luxembourg</nciodm:PreferredTerm>
                </EnumeratedItem>
                <EnumeratedItem CodedValue="LVA" nciodm:ExtCodeID="C16783">
                    <nciodm:CDISCSynonym>LATVIA</nciodm:CDISCSynonym>
                    <nciodm:CDISCDefinition>A country in Eastern Europe, bordering the Baltic Sea, between Estonia and Lithuania. (NCI)</nciodm:CDISCDefinition>
                    <nciodm:PreferredTerm>Latvia</nciodm:PreferredTerm>
                </EnumeratedItem>
                <EnumeratedItem CodedValue="MAC" nciodm:ExtCodeID="C16807">
                    <nciodm:CDISCSynonym>MACAO</nciodm:CDISCSynonym>
                    <nciodm:CDISCDefinition>A country in Eastern Asia, bordering the South China Sea and China. (NCI)</nciodm:CDISCDefinition>
                    <nciodm:PreferredTerm>Macau</nciodm:PreferredTerm>
                </EnumeratedItem>
                <EnumeratedItem CodedValue="MAF" nciodm:ExtCodeID="C83610">
                    <nciodm:CDISCSynonym>SAINT MARTIN, FRENCH</nciodm:CDISCSynonym>
                    <nciodm:CDISCSynonym>SAINT MARTIN (FRENCH PART)</nciodm:CDISCSynonym>
                    <nciodm:CDISCDefinition>An island in the Caribbean sea, between Anguilla and Saint Barthelemy. (NCI)</nciodm:CDISCDefinition>
                    <nciodm:PreferredTerm>Saint Martin (French Part)</nciodm:PreferredTerm>
                </EnumeratedItem>
                <EnumeratedItem CodedValue="MAR" nciodm:ExtCodeID="C16878">
                    <nciodm:CDISCSynonym>MOROCCO</nciodm:CDISCSynonym>
                    <nciodm:CDISCDefinition>A country in Northern Africa, bordering the North Atlantic Ocean and the Mediterranean Sea, between Algeria and Western Sahara. (NCI)</nciodm:CDISCDefinition>
                    <nciodm:PreferredTerm>Morocco</nciodm:PreferredTerm>
                </EnumeratedItem>
                <EnumeratedItem CodedValue="MCO" nciodm:ExtCodeID="C16874">
                    <nciodm:CDISCSynonym>MONACO</nciodm:CDISCSynonym>
                    <nciodm:CDISCDefinition>A country in Western Europe, bordering the Mediterranean Sea on the southern coast of France, near the border with Italy. (NCI)</nciodm:CDISCDefinition>
                    <nciodm:PreferredTerm>Monaco</nciodm:PreferredTerm>
                </EnumeratedItem>
                <EnumeratedItem CodedValue="MDA" nciodm:ExtCodeID="C16871">
                    <nciodm:CDISCSynonym>MOLDOVA, REPUBLIC OF</nciodm:CDISCSynonym>
                    <nciodm:CDISCDefinition>A country in Eastern Europe, northeast of Romania. (NCI)</nciodm:CDISCDefinition>
                    <nciodm:PreferredTerm>Moldova, Republic of</nciodm:PreferredTerm>
                </EnumeratedItem>
                <EnumeratedItem CodedValue="MDG" nciodm:ExtCodeID="C16808">
                    <nciodm:CDISCSynonym>MADAGASCAR</nciodm:CDISCSynonym>
                    <nciodm:CDISCDefinition>A country in Southern Africa, occupying an island in the Indian Ocean, east of Mozambique. (NCI)</nciodm:CDISCDefinition>
                    <nciodm:PreferredTerm>Madagascar</nciodm:PreferredTerm>
                </EnumeratedItem>
                <EnumeratedItem CodedValue="MDV" nciodm:ExtCodeID="C16815">
                    <nciodm:CDISCSynonym>MALDIVES</nciodm:CDISCSynonym>
                    <nciodm:CDISCDefinition>A country in Southern Asia, occupying a group of atolls in the Indian Ocean, south-southwest of India. (NCI)</nciodm:CDISCDefinition>
                    <nciodm:PreferredTerm>Maldives</nciodm:PreferredTerm>
                </EnumeratedItem>
                <EnumeratedItem CodedValue="MEX" nciodm:ExtCodeID="C16850">
                    <nciodm:CDISCSynonym>MEXICO</nciodm:CDISCSynonym>
                    <nciodm:CDISCDefinition>A country in Central America, bordering the Caribbean Sea and the Gulf of Mexico, between Belize and the US and bordering the North Pacific Ocean, between Guatemala and the US. (NCI)</nciodm:CDISCDefinition>
                    <nciodm:PreferredTerm>Mexico</nciodm:PreferredTerm>
                </EnumeratedItem>
                <EnumeratedItem CodedValue="MHL" nciodm:ExtCodeID="C16822">
                    <nciodm:CDISCSynonym>MARSHALL ISLANDS</nciodm:CDISCSynonym>
                    <nciodm:CDISCDefinition>A group of atolls and reefs in the North Pacific Ocean, about one-half of the way from Hawaii to Australia. (NCI)</nciodm:CDISCDefinition>
                    <nciodm:PreferredTerm>Marshall Islands</nciodm:PreferredTerm>
                </EnumeratedItem>
                <EnumeratedItem CodedValue="MKD" nciodm:ExtCodeID="C17654">
                    <nciodm:CDISCSynonym>REPUBLIC OF MACEDONIA</nciodm:CDISCSynonym>
                    <nciodm:CDISCSynonym>MACEDONIA, THE FORMER YUGOSLAV REPUBLIC OF</nciodm:CDISCSynonym>
                    <nciodm:CDISCDefinition>A country in Southeastern Europe, north of Greece. (NCI)</nciodm:CDISCDefinition>
                    <nciodm:PreferredTerm>Macedonia, the Former Yugoslav Republic of</nciodm:PreferredTerm>
                </EnumeratedItem>
                <EnumeratedItem CodedValue="MLI" nciodm:ExtCodeID="C16816">
                    <nciodm:CDISCSynonym>MALI</nciodm:CDISCSynonym>
                    <nciodm:CDISCDefinition>A country in Western Africa, southwest of Algeria. (NCI)</nciodm:CDISCDefinition>
                    <nciodm:PreferredTerm>Mali</nciodm:PreferredTerm>
                </EnumeratedItem>
                <EnumeratedItem CodedValue="MLT" nciodm:ExtCodeID="C16817">
                    <nciodm:CDISCSynonym>MALTA</nciodm:CDISCSynonym>
                    <nciodm:CDISCDefinition>A country in Southern Europe, occupying islands in the Mediterranean Sea, south of Sicily (Italy). (NCI)</nciodm:CDISCDefinition>
                    <nciodm:PreferredTerm>Malta</nciodm:PreferredTerm>
                </EnumeratedItem>
                <EnumeratedItem CodedValue="MMR" nciodm:ExtCodeID="C16370">
                    <nciodm:CDISCSynonym>MYANMAR</nciodm:CDISCSynonym>
                    <nciodm:CDISCDefinition>A country in Southeastern Asia, bordering the Andaman Sea and the Bay of Bengal, between Bangladesh and Thailand. (NCI)</nciodm:CDISCDefinition>
                    <nciodm:PreferredTerm>Myanmar</nciodm:PreferredTerm>
                </EnumeratedItem>
                <EnumeratedItem CodedValue="MNE" nciodm:ExtCodeID="C64378">
                    <nciodm:CDISCSynonym>MONTENEGRO</nciodm:CDISCSynonym>
                    <nciodm:CDISCDefinition>A republic in Southeastern Europe, bordering the Adriatic Sea, between Albania and Bosnia and Herzegovina. Formerly part of Serbia and Montenegro (Federation Republic of Yugoslavia). (NCI)</nciodm:CDISCDefinition>
                    <nciodm:PreferredTerm>Montenegro</nciodm:PreferredTerm>
                </EnumeratedItem>
                <EnumeratedItem CodedValue="MNG" nciodm:ExtCodeID="C16875">
                    <nciodm:CDISCSynonym>MONGOLIA</nciodm:CDISCSynonym>
                    <nciodm:CDISCDefinition>A country in Northern Asia, between China and Russia. (NCI)</nciodm:CDISCDefinition>
                    <nciodm:PreferredTerm>Mongolia</nciodm:PreferredTerm>
                </EnumeratedItem>
                <EnumeratedItem CodedValue="MNP" nciodm:ExtCodeID="C17882">
                    <nciodm:CDISCSynonym>NORTHERN MARIANA ISLANDS</nciodm:CDISCSynonym>
                    <nciodm:CDISCDefinition>A country in the Pacific, comprising islands in the North Pacific Ocean, about three-quarters of the way from Hawaii to the Philippines. (NCI)</nciodm:CDISCDefinition>
                    <nciodm:PreferredTerm>Northern Mariana Islands</nciodm:PreferredTerm>
                </EnumeratedItem>
                <EnumeratedItem CodedValue="MOZ" nciodm:ExtCodeID="C16882">
                    <nciodm:CDISCSynonym>MOZAMBIQUE</nciodm:CDISCSynonym>
                    <nciodm:CDISCDefinition>A country in Southern Africa, bordering the Mozambique Channel, between South Africa and Tanzania. (NCI)</nciodm:CDISCDefinition>
                    <nciodm:PreferredTerm>Mozambique</nciodm:PreferredTerm>
                </EnumeratedItem>
                <EnumeratedItem CodedValue="MRT" nciodm:ExtCodeID="C16826">
                    <nciodm:CDISCSynonym>MAURITANIA</nciodm:CDISCSynonym>
                    <nciodm:CDISCDefinition>A country in Northern Africa, bordering the North Atlantic Ocean, between Senegal and Western Sahara. (NCI)</nciodm:CDISCDefinition>
                    <nciodm:PreferredTerm>Mauritania</nciodm:PreferredTerm>
                </EnumeratedItem>
                <EnumeratedItem CodedValue="MSR" nciodm:ExtCodeID="C16876">
                    <nciodm:CDISCSynonym>MONTSERRAT</nciodm:CDISCSynonym>
                    <nciodm:CDISCDefinition>A country in the Caribbean, occupying an island in the Caribbean Sea, southeast of Puerto Rico. (NCI)</nciodm:CDISCDefinition>
                    <nciodm:PreferredTerm>Montserrat</nciodm:PreferredTerm>
                </EnumeratedItem>
                <EnumeratedItem CodedValue="MTQ" nciodm:ExtCodeID="C16823">
                    <nciodm:CDISCSynonym>MARTINIQUE</nciodm:CDISCSynonym>
                    <nciodm:CDISCDefinition>An island in the Caribbean Sea, north of Trinidad and Tobago. (NCI)</nciodm:CDISCDefinition>
                    <nciodm:PreferredTerm>Martinique</nciodm:PreferredTerm>
                </EnumeratedItem>
                <EnumeratedItem CodedValue="MUS" nciodm:ExtCodeID="C16827">
                    <nciodm:CDISCSynonym>MAURITIUS</nciodm:CDISCSynonym>
                    <nciodm:CDISCDefinition>A country in Southern Africa, occupying an island in the Indian Ocean, east of Madagascar. (NCI)</nciodm:CDISCDefinition>
                    <nciodm:PreferredTerm>Mauritius</nciodm:PreferredTerm>
                </EnumeratedItem>
                <EnumeratedItem CodedValue="MWI" nciodm:ExtCodeID="C16813">
                    <nciodm:CDISCSynonym>MALAWI</nciodm:CDISCSynonym>
                    <nciodm:CDISCDefinition>A country in Southern Africa, east of Zambia. (NCI)</nciodm:CDISCDefinition>
                    <nciodm:PreferredTerm>Malawi</nciodm:PreferredTerm>
                </EnumeratedItem>
                <EnumeratedItem CodedValue="MYS" nciodm:ExtCodeID="C16814">
                    <nciodm:CDISCSynonym>MALAYSIA</nciodm:CDISCSynonym>
                    <nciodm:CDISCDefinition>A country in Southeastern Asia, occupying a peninsula and the northern one-third of the island of Borneo, bordering Indonesia and the South China Sea, south of Vietnam. (NCI)</nciodm:CDISCDefinition>
                    <nciodm:PreferredTerm>Malaysia</nciodm:PreferredTerm>
                </EnumeratedItem>
                <EnumeratedItem CodedValue="MYT" nciodm:ExtCodeID="C16828">
                    <nciodm:CDISCSynonym>MAYOTTE</nciodm:CDISCSynonym>
                    <nciodm:CDISCDefinition>A country in Southern Africa, occupying an island in the Mozambique Channel, about one-half of the way from northern Madagascar to northern Mozambique. (NCI)</nciodm:CDISCDefinition>
                    <nciodm:PreferredTerm>Mayotte</nciodm:PreferredTerm>
                </EnumeratedItem>
                <EnumeratedItem CodedValue="NAM" nciodm:ExtCodeID="C16891">
                    <nciodm:CDISCSynonym>NAMIBIA</nciodm:CDISCSynonym>
                    <nciodm:CDISCDefinition>A country in Southern Africa, bordering the South Atlantic Ocean, between Angola and South Africa. (NCI)</nciodm:CDISCDefinition>
                    <nciodm:PreferredTerm>Namibia</nciodm:PreferredTerm>
                </EnumeratedItem>
                <EnumeratedItem CodedValue="NCL" nciodm:ExtCodeID="C16913">
                    <nciodm:CDISCSynonym>NEW CALEDONIA</nciodm:CDISCSynonym>
                    <nciodm:CDISCDefinition>A country in the Pacific, comprised of islands in the South Pacific Ocean, east of Australia. (NCI)</nciodm:CDISCDefinition>
                    <nciodm:PreferredTerm>New Caledonia</nciodm:PreferredTerm>
                </EnumeratedItem>
                <EnumeratedItem CodedValue="NER" nciodm:ExtCodeID="C16916">
                    <nciodm:CDISCSynonym>NIGER</nciodm:CDISCSynonym>
                    <nciodm:CDISCDefinition>A country in Western Africa, southeast of Algeria. (NCI)</nciodm:CDISCDefinition>
                    <nciodm:PreferredTerm>Niger</nciodm:PreferredTerm>
                </EnumeratedItem>
                <EnumeratedItem CodedValue="NFK" nciodm:ExtCodeID="C16919">
                    <nciodm:CDISCSynonym>NORFOLK ISLAND</nciodm:CDISCSynonym>
                    <nciodm:CDISCDefinition>A country in the Pacific, occupying an island in the South Pacific Ocean, east of Australia. (NCI)</nciodm:CDISCDefinition>
                    <nciodm:PreferredTerm>Norfolk Island</nciodm:PreferredTerm>
                </EnumeratedItem>
                <EnumeratedItem CodedValue="NGA" nciodm:ExtCodeID="C16917">
                    <nciodm:CDISCSynonym>NIGERIA</nciodm:CDISCSynonym>
                    <nciodm:CDISCDefinition>A country in Western Africa, bordering the Gulf of Guinea, between Benin and Cameroon. (NCI)</nciodm:CDISCDefinition>
                    <nciodm:PreferredTerm>Nigeria</nciodm:PreferredTerm>
                </EnumeratedItem>
                <EnumeratedItem CodedValue="NIC" nciodm:ExtCodeID="C16915">
                    <nciodm:CDISCSynonym>NICARAGUA</nciodm:CDISCSynonym>
                    <nciodm:CDISCDefinition>A country in Central America, bordering both the Caribbean Sea and the North Pacific Ocean, between Costa Rica and Honduras. (NCI)</nciodm:CDISCDefinition>
                    <nciodm:PreferredTerm>Nicaragua</nciodm:PreferredTerm>
                </EnumeratedItem>
                <EnumeratedItem CodedValue="NIU" nciodm:ExtCodeID="C16918">
                    <nciodm:CDISCSynonym>NIUE</nciodm:CDISCSynonym>
                    <nciodm:CDISCDefinition>A country in the Pacific, occupying an island in the South Pacific Ocean, east of Tonga. (NCI)</nciodm:CDISCDefinition>
                    <nciodm:PreferredTerm>Niue</nciodm:PreferredTerm>
                </EnumeratedItem>
                <EnumeratedItem CodedValue="NLD" nciodm:ExtCodeID="C16903">
                    <nciodm:CDISCSynonym>NETHERLANDS</nciodm:CDISCSynonym>
                    <nciodm:CDISCDefinition>A country in Western Europe, bordering the North Sea, between Belgium and Germany. (NCI)</nciodm:CDISCDefinition>
                    <nciodm:PreferredTerm>Netherlands</nciodm:PreferredTerm>
                </EnumeratedItem>
                <EnumeratedItem CodedValue="NOR" nciodm:ExtCodeID="C16920">
                    <nciodm:CDISCSynonym>NORWAY</nciodm:CDISCSynonym>
                    <nciodm:CDISCDefinition>A country in Northern Europe, bordering the North Sea and the North Atlantic Ocean, west of Sweden. (NCI)</nciodm:CDISCDefinition>
                    <nciodm:PreferredTerm>Norway</nciodm:PreferredTerm>
                </EnumeratedItem>
                <EnumeratedItem CodedValue="NPL" nciodm:ExtCodeID="C16901">
                    <nciodm:CDISCSynonym>NEPAL</nciodm:CDISCSynonym>
                    <nciodm:CDISCDefinition>A country in Southern Asia, between China and India. (NCI)</nciodm:CDISCDefinition>
                    <nciodm:PreferredTerm>Nepal</nciodm:PreferredTerm>
                </EnumeratedItem>
                <EnumeratedItem CodedValue="NRU" nciodm:ExtCodeID="C16896">
                    <nciodm:CDISCSynonym>NAURU</nciodm:CDISCSynonym>
                    <nciodm:CDISCDefinition>A country in Oceania, occupying an island in the South Pacific Ocean, south of the Marshall Islands. (NCI)</nciodm:CDISCDefinition>
                    <nciodm:PreferredTerm>Nauru</nciodm:PreferredTerm>
                </EnumeratedItem>
                <EnumeratedItem CodedValue="NZL" nciodm:ExtCodeID="C16914">
                    <nciodm:CDISCSynonym>NEW ZEALAND</nciodm:CDISCSynonym>
                    <nciodm:CDISCDefinition>A country in the Pacific, comprised of islands in the South Pacific Ocean, southeast of Australia. (NCI)</nciodm:CDISCDefinition>
                    <nciodm:PreferredTerm>New Zealand</nciodm:PreferredTerm>
                </EnumeratedItem>
                <EnumeratedItem CodedValue="OMN" nciodm:ExtCodeID="C16933">
                    <nciodm:CDISCSynonym>OMAN</nciodm:CDISCSynonym>
                    <nciodm:CDISCDefinition>A country in the Middle East, bordering the Arabian Sea, Gulf of Oman, and Persian Gulf, between Yemen and the United Arab Emirates. (NCI)</nciodm:CDISCDefinition>
                    <nciodm:PreferredTerm>Oman</nciodm:PreferredTerm>
                </EnumeratedItem>
                <EnumeratedItem CodedValue="PAK" nciodm:ExtCodeID="C16949">
                    <nciodm:CDISCSynonym>PAKISTAN</nciodm:CDISCSynonym>
                    <nciodm:CDISCDefinition>A country in Southern Asia, bordering the Arabian Sea, between India on the east and Iran and Afghanistan on the west and China in the north. (NCI)</nciodm:CDISCDefinition>
                    <nciodm:PreferredTerm>Pakistan</nciodm:PreferredTerm>
                </EnumeratedItem>
                <EnumeratedItem CodedValue="PAN" nciodm:ExtCodeID="C16951">
                    <nciodm:CDISCSynonym>PANAMA</nciodm:CDISCSynonym>
                    <nciodm:CDISCDefinition>A country in Central America, bordering both the Caribbean Sea and the North Pacific Ocean, between Colombia and Costa Rica. (NCI)</nciodm:CDISCDefinition>
                    <nciodm:PreferredTerm>Panama</nciodm:PreferredTerm>
                </EnumeratedItem>
                <EnumeratedItem CodedValue="PCN" nciodm:ExtCodeID="C16993">
                    <nciodm:CDISCSynonym>PITCAIRN</nciodm:CDISCSynonym>
                    <nciodm:CDISCDefinition>A country in the Pacific, comprised of islands in the South Pacific Ocean, about midway between Peru and New Zealand. (NCI)</nciodm:CDISCDefinition>
                    <nciodm:PreferredTerm>Pitcairn</nciodm:PreferredTerm>
                </EnumeratedItem>
                <EnumeratedItem CodedValue="PER" nciodm:ExtCodeID="C16972">
                    <nciodm:CDISCSynonym>PERU</nciodm:CDISCSynonym>
                    <nciodm:CDISCDefinition>A country in Western South America, bordering the South Pacific Ocean, between Chile and Ecuador. (NCI)</nciodm:CDISCDefinition>
                    <nciodm:PreferredTerm>Peru</nciodm:PreferredTerm>
                </EnumeratedItem>
                <EnumeratedItem CodedValue="PHL" nciodm:ExtCodeID="C16978">
                    <nciodm:CDISCSynonym>PHILIPPINES</nciodm:CDISCSynonym>
                    <nciodm:CDISCDefinition>A country in Southeastern Asia, comprised of an archipelago between the Philippine Sea and the South China Sea, east of Vietnam. (NCI)</nciodm:CDISCDefinition>
                    <nciodm:PreferredTerm>Philippines</nciodm:PreferredTerm>
                </EnumeratedItem>
                <EnumeratedItem CodedValue="PLW" nciodm:ExtCodeID="C17733">
                    <nciodm:CDISCSynonym>PALAU</nciodm:CDISCSynonym>
                    <nciodm:CDISCDefinition>A country in the Pacific, comprising a group of islands in the North Pacific Ocean, southeast of the Philippines. (NCI)</nciodm:CDISCDefinition>
                    <nciodm:PreferredTerm>Palau</nciodm:PreferredTerm>
                </EnumeratedItem>
                <EnumeratedItem CodedValue="PNG" nciodm:ExtCodeID="C16952">
                    <nciodm:CDISCSynonym>PAPUA NEW GUINEA</nciodm:CDISCSynonym>
                    <nciodm:CDISCDefinition>A country in Southeastern Asia, comprising a group of islands and including the eastern half of the island of New Guinea, between the Coral Sea and the South Pacific Ocean, east of Indonesia. (NCI)</nciodm:CDISCDefinition>
                    <nciodm:PreferredTerm>Papua New Guinea</nciodm:PreferredTerm>
                </EnumeratedItem>
                <EnumeratedItem CodedValue="POL" nciodm:ExtCodeID="C17002">
                    <nciodm:CDISCSynonym>POLAND</nciodm:CDISCSynonym>
                    <nciodm:CDISCDefinition>A country in Central Europe, east of Germany. (NCI)</nciodm:CDISCDefinition>
                    <nciodm:PreferredTerm>Poland</nciodm:PreferredTerm>
                </EnumeratedItem>
                <EnumeratedItem CodedValue="PRI" nciodm:ExtCodeID="C17043">
                    <nciodm:CDISCSynonym>PUERTO RICO</nciodm:CDISCSynonym>
                    <nciodm:CDISCDefinition>An island between the Caribbean Sea and the North Atlantic Ocean, east of the Dominican Republic. (NCI)</nciodm:CDISCDefinition>
                    <nciodm:PreferredTerm>Puerto Rico</nciodm:PreferredTerm>
                </EnumeratedItem>
                <EnumeratedItem CodedValue="PRK" nciodm:ExtCodeID="C16773">
                    <nciodm:CDISCSynonym>NORTH KOREA</nciodm:CDISCSynonym>
                    <nciodm:CDISCSynonym>KOREA, DEMOCRATIC PEOPLE'S REPUBLIC OF</nciodm:CDISCSynonym>
                    <nciodm:CDISCDefinition>A country in Eastern Asia, occupying the northern half of the Korean Peninsula, bordering the Korea Bay and the Sea of Japan, between China and South Korea. (NCI)</nciodm:CDISCDefinition>
                    <nciodm:PreferredTerm>Korea, Democratic People's Republic of</nciodm:PreferredTerm>
                </EnumeratedItem>
                <EnumeratedItem CodedValue="PRT" nciodm:ExtCodeID="C17006">
                    <nciodm:CDISCSynonym>PORTUGAL</nciodm:CDISCSynonym>
                    <nciodm:CDISCDefinition>A country in Southwestern Europe, bordering the North Atlantic Ocean, west of Spain. (NCI)</nciodm:CDISCDefinition>
                    <nciodm:PreferredTerm>Portugal</nciodm:PreferredTerm>
                </EnumeratedItem>
                <EnumeratedItem CodedValue="PRY" nciodm:ExtCodeID="C16953">
                    <nciodm:CDISCSynonym>PARAGUAY</nciodm:CDISCSynonym>
                    <nciodm:CDISCDefinition>A country in Central South America, northeast of Argentina. (NCI)</nciodm:CDISCDefinition>
                    <nciodm:PreferredTerm>Paraguay</nciodm:PreferredTerm>
                </EnumeratedItem>
                <EnumeratedItem CodedValue="PSE" nciodm:ExtCodeID="C20110">
                    <nciodm:CDISCSynonym>PALESTINIAN TERRITORY, OCCUPIED</nciodm:CDISCSynonym>
                    <nciodm:CDISCDefinition>A collective name for the West Bank and the Gaza Strip, two territories in Palestine. (NCI)</nciodm:CDISCDefinition>
                    <nciodm:PreferredTerm>Palestinian Territory, Occupied</nciodm:PreferredTerm>
                </EnumeratedItem>
                <EnumeratedItem CodedValue="PYF" nciodm:ExtCodeID="C16594">
                    <nciodm:CDISCSynonym>FRENCH POLYNESIA</nciodm:CDISCSynonym>
                    <nciodm:CDISCDefinition>An archipelago in the South Pacific Ocean, about one-half of the way from South America to Australia. (NCI)</nciodm:CDISCDefinition>
                    <nciodm:PreferredTerm>French Polynesia</nciodm:PreferredTerm>
                </EnumeratedItem>
                <EnumeratedItem CodedValue="QAT" nciodm:ExtCodeID="C17045">
                    <nciodm:CDISCSynonym>QATAR</nciodm:CDISCSynonym>
                    <nciodm:CDISCDefinition>A country in the Middle East, occupying a peninsula bordering the Persian Gulf and Saudi Arabia. (NCI)</nciodm:CDISCDefinition>
                    <nciodm:PreferredTerm>Qatar</nciodm:PreferredTerm>
                </EnumeratedItem>
                <EnumeratedItem CodedValue="REU" nciodm:ExtCodeID="C17095">
                    <nciodm:CDISCSynonym>REUNION</nciodm:CDISCSynonym>
                    <nciodm:CDISCDefinition>A country in Southern Africa, occupying an island in the Indian Ocean, east of Madagascar. (NCI)</nciodm:CDISCDefinition>
                    <nciodm:PreferredTerm>Reunion</nciodm:PreferredTerm>
                </EnumeratedItem>
                <EnumeratedItem CodedValue="ROU" nciodm:ExtCodeID="C17108">
                    <nciodm:CDISCSynonym>ROMANIA</nciodm:CDISCSynonym>
                    <nciodm:CDISCDefinition>A country in Southeastern Europe, bordering the Black Sea, between Bulgaria and Ukraine. (NCI)</nciodm:CDISCDefinition>
                    <nciodm:PreferredTerm>Romania</nciodm:PreferredTerm>
                </EnumeratedItem>
                <EnumeratedItem CodedValue="RUS" nciodm:ExtCodeID="C17111">
                    <nciodm:CDISCSynonym>RUSSIAN FEDERATION</nciodm:CDISCSynonym>
                    <nciodm:CDISCDefinition>A country in Northern Asia (that part west of the Urals is sometimes included with Europe), bordering the Arctic Ocean, between Europe and the North Pacific Ocean. (NCI)</nciodm:CDISCDefinition>
                    <nciodm:PreferredTerm>Russian Federation</nciodm:PreferredTerm>
                </EnumeratedItem>
                <EnumeratedItem CodedValue="RWA" nciodm:ExtCodeID="C17112">
                    <nciodm:CDISCSynonym>RWANDA</nciodm:CDISCSynonym>
                    <nciodm:CDISCDefinition>A country in Central Africa, east of Democratic Republic of the Congo. (NCI)</nciodm:CDISCDefinition>
                    <nciodm:PreferredTerm>Rwanda</nciodm:PreferredTerm>
                </EnumeratedItem>
                <EnumeratedItem CodedValue="SAU" nciodm:ExtCodeID="C17117">
                    <nciodm:CDISCSynonym>SAUDI ARABIA</nciodm:CDISCSynonym>
                    <nciodm:CDISCDefinition>A country in the Middle East, bordering the Persian Gulf and the Red Sea, north of Yemen. (NCI)</nciodm:CDISCDefinition>
                    <nciodm:PreferredTerm>Saudi Arabia</nciodm:PreferredTerm>
                </EnumeratedItem>
                <EnumeratedItem CodedValue="SDN" nciodm:ExtCodeID="C17170">
                    <nciodm:CDISCSynonym>SUDAN</nciodm:CDISCSynonym>
                    <nciodm:CDISCDefinition>A country in Northern Africa, bordering the Red Sea, between Egypt and Eritrea. (NCI)</nciodm:CDISCDefinition>
                    <nciodm:PreferredTerm>Sudan</nciodm:PreferredTerm>
                </EnumeratedItem>
                <EnumeratedItem CodedValue="SEN" nciodm:ExtCodeID="C17121">
                    <nciodm:CDISCSynonym>SENEGAL</nciodm:CDISCSynonym>
                    <nciodm:CDISCDefinition>A country in Western Africa, bordering the North Atlantic Ocean, between Guinea-Bissau and Mauritania. (NCI)</nciodm:CDISCDefinition>
                    <nciodm:PreferredTerm>Senegal</nciodm:PreferredTerm>
                </EnumeratedItem>
                <EnumeratedItem CodedValue="SGP" nciodm:ExtCodeID="C17134">
                    <nciodm:CDISCSynonym>SINGAPORE</nciodm:CDISCSynonym>
                    <nciodm:CDISCDefinition>A country in Southeastern Asia, comprised of islands between Malaysia and Indonesia. (NCI)</nciodm:CDISCDefinition>
                    <nciodm:PreferredTerm>Singapore</nciodm:PreferredTerm>
                </EnumeratedItem>
                <EnumeratedItem CodedValue="SGS" nciodm:ExtCodeID="C20111">
                    <nciodm:CDISCSynonym>SOUTH GEORGIA AND THE SOUTH SANDWICH ISLANDS</nciodm:CDISCSynonym>
                    <nciodm:CDISCDefinition>A group of islands in the South Atlantic Ocean, east of the tip of South America. (NCI)</nciodm:CDISCDefinition>
                    <nciodm:PreferredTerm>South Georgia and the South Sandwich Islands</nciodm:PreferredTerm>
                </EnumeratedItem>
                <EnumeratedItem CodedValue="SHN" nciodm:ExtCodeID="C17164">
                    <nciodm:CDISCSynonym>SAINT HELENA</nciodm:CDISCSynonym>
                    <nciodm:CDISCSynonym>SAINT HELENA, ASCENSION AND TRISTAN DA CUNHA</nciodm:CDISCSynonym>
                    <nciodm:CDISCDefinition>Islands in the South Atlantic Ocean, about midway between South America and Africa. (NCI)</nciodm:CDISCDefinition>
                    <nciodm:PreferredTerm>Saint Helena, Ascension and Tristan da Cunha</nciodm:PreferredTerm>
                </EnumeratedItem>
                <EnumeratedItem CodedValue="SJM" nciodm:ExtCodeID="C17178">
                    <nciodm:CDISCSynonym>SVALBARD AND JAN MAYEN</nciodm:CDISCSynonym>
                    <nciodm:CDISCDefinition>Islands between the Arctic Ocean, Barents Sea, Greenland Sea, and Norwegian Sea, northeast of Iceland and north of Norway. (NCI)</nciodm:CDISCDefinition>
                    <nciodm:PreferredTerm>Svalbard and Jan Mayen</nciodm:PreferredTerm>
                </EnumeratedItem>
                <EnumeratedItem CodedValue="SLB" nciodm:ExtCodeID="C17148">
                    <nciodm:CDISCSynonym>SOLOMON ISLANDS</nciodm:CDISCSynonym>
                    <nciodm:CDISCDefinition>A group of islands in the South Pacific Ocean, east of Papua New Guinea. (NCI)</nciodm:CDISCDefinition>
                    <nciodm:PreferredTerm>Solomon Islands</nciodm:PreferredTerm>
                </EnumeratedItem>
                <EnumeratedItem CodedValue="SLE" nciodm:ExtCodeID="C17130">
                    <nciodm:CDISCSynonym>SIERRA LEONE</nciodm:CDISCSynonym>
                    <nciodm:CDISCDefinition>A country in Western Africa, bordering the North Atlantic Ocean, between Guinea and Liberia. (NCI)</nciodm:CDISCDefinition>
                    <nciodm:PreferredTerm>Sierra Leone</nciodm:PreferredTerm>
                </EnumeratedItem>
                <EnumeratedItem CodedValue="SLV" nciodm:ExtCodeID="C16532">
                    <nciodm:CDISCSynonym>EL SALVADOR</nciodm:CDISCSynonym>
                    <nciodm:CDISCDefinition>A country in Central America, bordering the North Pacific Ocean, between Guatemala and Honduras. (NCI)</nciodm:CDISCDefinition>
                    <nciodm:PreferredTerm>El Salvador</nciodm:PreferredTerm>
                </EnumeratedItem>
                <EnumeratedItem CodedValue="SMR" nciodm:ExtCodeID="C17115">
                    <nciodm:CDISCSynonym>SAN MARINO</nciodm:CDISCSynonym>
                    <nciodm:CDISCDefinition>A country in Southern Europe, an enclave in central Italy. (NCI)</nciodm:CDISCDefinition>
                    <nciodm:PreferredTerm>San Marino</nciodm:PreferredTerm>
                </EnumeratedItem>
                <EnumeratedItem CodedValue="SOM" nciodm:ExtCodeID="C17149">
                    <nciodm:CDISCSynonym>SOMALIA</nciodm:CDISCSynonym>
                    <nciodm:CDISCDefinition>A country in Eastern Africa, bordering the Gulf of Aden and the Indian Ocean, east of Ethiopia. (NCI)</nciodm:CDISCDefinition>
                    <nciodm:PreferredTerm>Somalia</nciodm:PreferredTerm>
                </EnumeratedItem>
                <EnumeratedItem CodedValue="SPM" nciodm:ExtCodeID="C17165">
                    <nciodm:CDISCSynonym>SAINT PIERRE AND MIQUELON</nciodm:CDISCSynonym>
                    <nciodm:CDISCDefinition>A country in Northern North America, comprised of islands in the North Atlantic Ocean, south of Newfoundland (Canada). (NCI)</nciodm:CDISCDefinition>
                    <nciodm:PreferredTerm>Saint Pierre and Miquelon</nciodm:PreferredTerm>
                </EnumeratedItem>
                <EnumeratedItem CodedValue="SRB" nciodm:ExtCodeID="C64377">
                    <nciodm:CDISCSynonym>SERBIA</nciodm:CDISCSynonym>
                    <nciodm:CDISCDefinition>A republic in Southeastern Europe, bordering the Adriatic Sea, between Albania and Bosnia and Herzegovina. Formerly part of Serbia and Montenegro (Federation Republic of Yugoslavia). (NCI)</nciodm:CDISCDefinition>
                    <nciodm:PreferredTerm>Serbia</nciodm:PreferredTerm>
                </EnumeratedItem>
                <EnumeratedItem CodedValue="SSD" nciodm:ExtCodeID="C97351">
                    <nciodm:CDISCSynonym>SOUTH SUDAN</nciodm:CDISCSynonym>
                    <nciodm:CDISCDefinition>A northeastern African country located in the Sahel region and bordered by Sudan in the north, Uganda and Kenya in the south and Ethiopia in the west. (NCI)</nciodm:CDISCDefinition>
                    <nciodm:PreferredTerm>South Sudan</nciodm:PreferredTerm>
                </EnumeratedItem>
                <EnumeratedItem CodedValue="STP" nciodm:ExtCodeID="C17116">
                    <nciodm:CDISCSynonym>SAO TOME AND PRINCIPE</nciodm:CDISCSynonym>
                    <nciodm:CDISCDefinition>A country in Western Africa, comprised of islands in the Gulf of Guinea, straddling the Equator, west of Gabon. (NCI)</nciodm:CDISCDefinition>
                    <nciodm:PreferredTerm>Sao Tome and Principe</nciodm:PreferredTerm>
                </EnumeratedItem>
                <EnumeratedItem CodedValue="SUR" nciodm:ExtCodeID="C17175">
                    <nciodm:CDISCSynonym>SURINAME</nciodm:CDISCSynonym>
                    <nciodm:CDISCDefinition>A country in Northern South America, bordering the North Atlantic Ocean, between French Guiana and Guyana. (NCI)</nciodm:CDISCDefinition>
                    <nciodm:PreferredTerm>Suriname</nciodm:PreferredTerm>
                </EnumeratedItem>
                <EnumeratedItem CodedValue="SVK" nciodm:ExtCodeID="C17669">
                    <nciodm:CDISCSynonym>SLOVAKIA</nciodm:CDISCSynonym>
                    <nciodm:CDISCDefinition>A country in Central Europe, south of Poland. (NCI)</nciodm:CDISCDefinition>
                    <nciodm:PreferredTerm>Slovakia</nciodm:PreferredTerm>
                </EnumeratedItem>
                <EnumeratedItem CodedValue="SVN" nciodm:ExtCodeID="C17138">
                    <nciodm:CDISCSynonym>SLOVENIA</nciodm:CDISCSynonym>
                    <nciodm:CDISCDefinition>A country in Central Europe, bordering the Adriatic Sea, between Austria and Croatia. (NCI)</nciodm:CDISCDefinition>
                    <nciodm:PreferredTerm>Slovenia</nciodm:PreferredTerm>
                </EnumeratedItem>
                <EnumeratedItem CodedValue="SWE" nciodm:ExtCodeID="C17180">
                    <nciodm:CDISCSynonym>SWEDEN</nciodm:CDISCSynonym>
                    <nciodm:CDISCDefinition>A country in Northern Europe, bordering the Baltic Sea, Gulf of Bothnia, Kattegat, and Skagerrak, between Finland and Norway. (NCI)</nciodm:CDISCDefinition>
                    <nciodm:PreferredTerm>Sweden</nciodm:PreferredTerm>
                </EnumeratedItem>
                <EnumeratedItem CodedValue="SWZ" nciodm:ExtCodeID="C17179">
                    <nciodm:CDISCSynonym>SWAZILAND</nciodm:CDISCSynonym>
                    <nciodm:CDISCDefinition>A country in Southern Africa, between Mozambique and South Africa. (NCI)</nciodm:CDISCDefinition>
                    <nciodm:PreferredTerm>Swaziland</nciodm:PreferredTerm>
                </EnumeratedItem>
                <EnumeratedItem CodedValue="SXM" nciodm:ExtCodeID="C101226">
                    <nciodm:CDISCSynonym>SINT MAARTEN (DUTCH)</nciodm:CDISCSynonym>
                    <nciodm:CDISCSynonym>SINT MAARTEN (DUTCH PART)</nciodm:CDISCSynonym>
                    <nciodm:CDISCDefinition>The southern portion of an island in the Caribbean sea, between Anguilla and Saint Barthelemy. (NCI)</nciodm:CDISCDefinition>
                    <nciodm:PreferredTerm>Sint Maarten (Dutch Part)</nciodm:PreferredTerm>
                </EnumeratedItem>
                <EnumeratedItem CodedValue="SYC" nciodm:ExtCodeID="C17129">
                    <nciodm:CDISCSynonym>SEYCHELLES</nciodm:CDISCSynonym>
                    <nciodm:CDISCDefinition>A country in Eastern Africa, comprised of a group of islands in the Indian Ocean, northeast of Madagascar. (NCI)</nciodm:CDISCDefinition>
                    <nciodm:PreferredTerm>Seychelles</nciodm:PreferredTerm>
                </EnumeratedItem>
                <EnumeratedItem CodedValue="SYR" nciodm:ExtCodeID="C17182">
                    <nciodm:CDISCSynonym>SYRIAN ARAB REPUBLIC</nciodm:CDISCSynonym>
                    <nciodm:CDISCDefinition>A country in the Middle East, bordering the Mediterranean Sea, between Lebanon and Turkey. (NCI)</nciodm:CDISCDefinition>
                    <nciodm:PreferredTerm>Syrian Arab Republic</nciodm:PreferredTerm>
                </EnumeratedItem>
                <EnumeratedItem CodedValue="TCA" nciodm:ExtCodeID="C17224">
                    <nciodm:CDISCSynonym>TURKS AND CAICOS ISLANDS</nciodm:CDISCSynonym>
                    <nciodm:CDISCDefinition>Two island groups in the North Atlantic Ocean, southeast of The Bahamas. (NCI)</nciodm:CDISCDefinition>
                    <nciodm:PreferredTerm>Turks and Caicos Islands</nciodm:PreferredTerm>
                </EnumeratedItem>
                <EnumeratedItem CodedValue="TCD" nciodm:ExtCodeID="C16412">
                    <nciodm:CDISCSynonym>CHAD</nciodm:CDISCSynonym>
                    <nciodm:CDISCDefinition>A country in Central Africa, south of Libya. (NCI)</nciodm:CDISCDefinition>
                    <nciodm:PreferredTerm>Chad</nciodm:PreferredTerm>
                </EnumeratedItem>
                <EnumeratedItem CodedValue="TGO" nciodm:ExtCodeID="C17202">
                    <nciodm:CDISCSynonym>TOGO</nciodm:CDISCSynonym>
                    <nciodm:CDISCDefinition>A country in Western Africa, bordering the Bight of Benin, between Benin and Ghana. (NCI)</nciodm:CDISCDefinition>
                    <nciodm:PreferredTerm>Togo</nciodm:PreferredTerm>
                </EnumeratedItem>
                <EnumeratedItem CodedValue="THA" nciodm:ExtCodeID="C17192">
                    <nciodm:CDISCSynonym>THAILAND</nciodm:CDISCSynonym>
                    <nciodm:CDISCDefinition>A country in Southeastern Asia, bordering the Andaman Sea and the Gulf of Thailand, southeast of Burma. (NCI)</nciodm:CDISCDefinition>
                    <nciodm:PreferredTerm>Thailand</nciodm:PreferredTerm>
                </EnumeratedItem>
                <EnumeratedItem CodedValue="TJK" nciodm:ExtCodeID="C17183">
                    <nciodm:CDISCSynonym>TAJIKISTAN</nciodm:CDISCSynonym>
                    <nciodm:CDISCDefinition>A country in Central Asia, west of China. (NCI)</nciodm:CDISCDefinition>
                    <nciodm:PreferredTerm>Tajikistan</nciodm:PreferredTerm>
                </EnumeratedItem>
                <EnumeratedItem CodedValue="TKL" nciodm:ExtCodeID="C17704">
                    <nciodm:CDISCSynonym>TOKELAU</nciodm:CDISCSynonym>
                    <nciodm:CDISCDefinition>A group of three atolls in the South Pacific Ocean, about one-half of the way from Hawaii to New Zealand. (NCI)</nciodm:CDISCDefinition>
                    <nciodm:PreferredTerm>Tokelau</nciodm:PreferredTerm>
                </EnumeratedItem>
                <EnumeratedItem CodedValue="TKM" nciodm:ExtCodeID="C17223">
                    <nciodm:CDISCSynonym>TURKMENISTAN</nciodm:CDISCSynonym>
                    <nciodm:CDISCDefinition>A country in Central Asia, bordering the Caspian Sea, between Iran and Kazakhstan. (NCI)</nciodm:CDISCDefinition>
                    <nciodm:PreferredTerm>Turkmenistan</nciodm:PreferredTerm>
                </EnumeratedItem>
                <EnumeratedItem CodedValue="TLS" nciodm:ExtCodeID="C17200">
                    <nciodm:CDISCSynonym>TIMOR-LESTE</nciodm:CDISCSynonym>
                    <nciodm:CDISCDefinition>A country in Southeastern Asia, northwest of Australia in the Lesser Sunda Islands at the eastern end of the Indonesian archipelago. East Timor includes the eastern half of the island of Timor, the Oecussi (Ambeno) region on the northwest portion of the island of Timor, and the islands of Pulau Atauro and Pulau Jaco. (NCI)</nciodm:CDISCDefinition>
                    <nciodm:PreferredTerm>Timor-Leste</nciodm:PreferredTerm>
                </EnumeratedItem>
                <EnumeratedItem CodedValue="TON" nciodm:ExtCodeID="C17205">
                    <nciodm:CDISCSynonym>TONGA</nciodm:CDISCSynonym>
                    <nciodm:CDISCDefinition>An archipelago in the South Pacific Ocean, about two-thirds of the way from Hawaii to New Zealand. (NCI)</nciodm:CDISCDefinition>
                    <nciodm:PreferredTerm>Tonga</nciodm:PreferredTerm>
                </EnumeratedItem>
                <EnumeratedItem CodedValue="TTO" nciodm:ExtCodeID="C17217">
                    <nciodm:CDISCSynonym>TRINIDAD AND TOBAGO</nciodm:CDISCSynonym>
                    <nciodm:CDISCDefinition>Islands between the Caribbean Sea and the North Atlantic Ocean, northeast of Venezuela. (NCI)</nciodm:CDISCDefinition>
                    <nciodm:PreferredTerm>Trinidad and Tobago</nciodm:PreferredTerm>
                </EnumeratedItem>
                <EnumeratedItem CodedValue="TUN" nciodm:ExtCodeID="C17221">
                    <nciodm:CDISCSynonym>TUNISIA</nciodm:CDISCSynonym>
                    <nciodm:CDISCDefinition>A country in Northern Africa, bordering the Mediterranean Sea, between Algeria and Libya. (NCI)</nciodm:CDISCDefinition>
                    <nciodm:PreferredTerm>Tunisia</nciodm:PreferredTerm>
                </EnumeratedItem>
                <EnumeratedItem CodedValue="TUR" nciodm:ExtCodeID="C17222">
                    <nciodm:CDISCSynonym>TURKEY</nciodm:CDISCSynonym>
                    <nciodm:CDISCDefinition>A country in southeastern Europe and southwestern Asia (that portion of Turkey west of the Bosporus is geographically part of Europe), bordering the Black Sea, between Bulgaria and Georgia, and bordering the Aegean Sea and the Mediterranean Sea, between Greece and Syria. (NCI)</nciodm:CDISCDefinition>
                    <nciodm:PreferredTerm>Turkey</nciodm:PreferredTerm>
                </EnumeratedItem>
                <EnumeratedItem CodedValue="TUV" nciodm:ExtCodeID="C17225">
                    <nciodm:CDISCSynonym>TUVALU</nciodm:CDISCSynonym>
                    <nciodm:CDISCDefinition>An island group consisting of nine coral atolls in the South Pacific Ocean, about one-half of the way from Hawaii to Australia. (NCI)</nciodm:CDISCDefinition>
                    <nciodm:PreferredTerm>Tuvalu</nciodm:PreferredTerm>
                </EnumeratedItem>
                <EnumeratedItem CodedValue="TWN" nciodm:ExtCodeID="C17184">
                    <nciodm:CDISCSynonym>TAIWAN</nciodm:CDISCSynonym>
                    <nciodm:CDISCDefinition>A group of islands bordering the East China Sea, Philippine Sea, South China Sea, and Taiwan Strait, north of the Philippines, off the southeastern coast of China. (NCI)</nciodm:CDISCDefinition>
                    <nciodm:PreferredTerm>Taiwan, Province of China</nciodm:PreferredTerm>
                </EnumeratedItem>
                <EnumeratedItem CodedValue="TZA" nciodm:ExtCodeID="C17185">
                    <nciodm:CDISCSynonym>TANZANIA, UNITED REPUBLIC OF</nciodm:CDISCSynonym>
                    <nciodm:CDISCDefinition>A country in Eastern Africa, bordering the Indian Ocean, between Kenya and Mozambique. (NCI)</nciodm:CDISCDefinition>
                    <nciodm:PreferredTerm>Tanzania, United Republic of</nciodm:PreferredTerm>
                </EnumeratedItem>
                <EnumeratedItem CodedValue="UGA" nciodm:ExtCodeID="C17228">
                    <nciodm:CDISCSynonym>UGANDA</nciodm:CDISCSynonym>
                    <nciodm:CDISCDefinition>A country in Eastern Africa, west of Kenya. (NCI)</nciodm:CDISCDefinition>
                    <nciodm:PreferredTerm>Uganda</nciodm:PreferredTerm>
                </EnumeratedItem>
                <EnumeratedItem CodedValue="UKR" nciodm:ExtCodeID="C17229">
                    <nciodm:CDISCSynonym>UKRAINE</nciodm:CDISCSynonym>
                    <nciodm:CDISCDefinition>A country in Eastern Europe, bordering the Black Sea, between Poland and Russia. (NCI)</nciodm:CDISCDefinition>
                    <nciodm:PreferredTerm>Ukraine</nciodm:PreferredTerm>
                </EnumeratedItem>
                <EnumeratedItem CodedValue="UMI" nciodm:ExtCodeID="C20112">
                    <nciodm:CDISCSynonym>UNITED STATES MINOR OUTLYING ISLANDS</nciodm:CDISCSynonym>
                    <nciodm:CDISCDefinition>The U.S. Minor Outlying Islands consist of Baker Island, Howland Island, Jarvis Island, Johnston Atoll, Kingman Reef, Midway Island, Navassa Island, Palmyra Atoll, and Wake Island (Wake Atoll). (NCI)</nciodm:CDISCDefinition>
                    <nciodm:PreferredTerm>United States Minor Outlying Islands</nciodm:PreferredTerm>
                </EnumeratedItem>
                <EnumeratedItem CodedValue="URY" nciodm:ExtCodeID="C17244">
                    <nciodm:CDISCSynonym>URUGUAY</nciodm:CDISCSynonym>
                    <nciodm:CDISCDefinition>A country in Southern South America, bordering the South Atlantic Ocean, between Argentina and Brazil. (NCI)</nciodm:CDISCDefinition>
                    <nciodm:PreferredTerm>Uruguay</nciodm:PreferredTerm>
                </EnumeratedItem>
                <EnumeratedItem CodedValue="USA" nciodm:ExtCodeID="C17234">
                    <nciodm:CDISCSynonym>UNITED STATES</nciodm:CDISCSynonym>
                    <nciodm:CDISCDefinition>A country in North America, bordering both the North Atlantic Ocean and the North Pacific Ocean, between Canada and Mexico. (NCI)</nciodm:CDISCDefinition>
                    <nciodm:PreferredTerm>United States</nciodm:PreferredTerm>
                </EnumeratedItem>
                <EnumeratedItem CodedValue="UZB" nciodm:ExtCodeID="C17246">
                    <nciodm:CDISCSynonym>UZBEKISTAN</nciodm:CDISCSynonym>
                    <nciodm:CDISCDefinition>A country in Central Asia, north of Afghanistan. (NCI)</nciodm:CDISCDefinition>
                    <nciodm:PreferredTerm>Uzbekistan</nciodm:PreferredTerm>
                </EnumeratedItem>
                <EnumeratedItem CodedValue="VAT" nciodm:ExtCodeID="C17249">
                    <nciodm:CDISCSynonym>VATICAN CITY STATE</nciodm:CDISCSynonym>
                    <nciodm:CDISCDefinition>An enclave of Rome (Italy). (NCI)</nciodm:CDISCDefinition>
                    <nciodm:PreferredTerm>Holy See (Vatican City State)</nciodm:PreferredTerm>
                </EnumeratedItem>
                <EnumeratedItem CodedValue="VCT" nciodm:ExtCodeID="C17114">
                    <nciodm:CDISCSynonym>SAINT VINCENT AND THE GRENADINES</nciodm:CDISCSynonym>
                    <nciodm:CDISCDefinition>A country in the Caribbean, comprised of islands in the Caribbean Sea, north of Trinidad and Tobago. (NCI)</nciodm:CDISCDefinition>
                    <nciodm:PreferredTerm>Saint Vincent and the Grenadines</nciodm:PreferredTerm>
                </EnumeratedItem>
                <EnumeratedItem CodedValue="VEN" nciodm:ExtCodeID="C17250">
                    <nciodm:CDISCSynonym>VENEZUELA</nciodm:CDISCSynonym>
                    <nciodm:CDISCSynonym>VENEZUELA, BOLIVARIAN REPUBLIC OF</nciodm:CDISCSynonym>
                    <nciodm:CDISCDefinition>A country in Northern South America, bordering the Caribbean Sea and the North Atlantic Ocean, between Colombia and Guyana. (NCI)</nciodm:CDISCDefinition>
                    <nciodm:PreferredTerm>Venezuela, Bolivian Republic of</nciodm:PreferredTerm>
                </EnumeratedItem>
                <EnumeratedItem CodedValue="VGB" nciodm:ExtCodeID="C17653">
                    <nciodm:CDISCSynonym>VIRGIN ISLANDS, BRITISH</nciodm:CDISCSynonym>
                    <nciodm:CDISCDefinition>Islands between the Caribbean Sea and the North Atlantic Ocean, east of Puerto Rico. (NCI)</nciodm:CDISCDefinition>
                    <nciodm:PreferredTerm>Virgin Islands, British</nciodm:PreferredTerm>
                </EnumeratedItem>
                <EnumeratedItem CodedValue="VIR" nciodm:ExtCodeID="C17255">
                    <nciodm:CDISCSynonym>VIRGIN ISLANDS, U.S.</nciodm:CDISCSynonym>
                    <nciodm:CDISCDefinition>Islands between the Caribbean Sea and the North Atlantic Ocean, east of Puerto Rico. (NCI)</nciodm:CDISCDefinition>
                    <nciodm:PreferredTerm>Virgin Islands, U.S.</nciodm:PreferredTerm>
                </EnumeratedItem>
                <EnumeratedItem CodedValue="VNM" nciodm:ExtCodeID="C17252">
                    <nciodm:CDISCSynonym>VIETNAM</nciodm:CDISCSynonym>
                    <nciodm:CDISCSynonym>VIET NAM</nciodm:CDISCSynonym>
                    <nciodm:CDISCDefinition>A country in Southeastern Asia, bordering the Gulf of Thailand, Gulf of Tonkin, and South China Sea, alongside China, Laos, and Cambodia. (NCI)</nciodm:CDISCDefinition>
                    <nciodm:PreferredTerm>Viet Nam</nciodm:PreferredTerm>
                </EnumeratedItem>
                <EnumeratedItem CodedValue="VUT" nciodm:ExtCodeID="C17247">
                    <nciodm:CDISCSynonym>VANUATU</nciodm:CDISCSynonym>
                    <nciodm:CDISCDefinition>A group of islands in the South Pacific Ocean, about three-quarters of the way from Hawaii to Australia. (NCI)</nciodm:CDISCDefinition>
                    <nciodm:PreferredTerm>Vanuatu</nciodm:PreferredTerm>
                </EnumeratedItem>
                <EnumeratedItem CodedValue="WLF" nciodm:ExtCodeID="C17259">
                    <nciodm:CDISCSynonym>WALLIS AND FUTUNA</nciodm:CDISCSynonym>
                    <nciodm:CDISCDefinition>Islands in the South Pacific Ocean, about two-thirds of the way from Hawaii to New Zealand. (NCI)</nciodm:CDISCDefinition>
                    <nciodm:PreferredTerm>Wallis and Futuna</nciodm:PreferredTerm>
                </EnumeratedItem>
                <EnumeratedItem CodedValue="WSM" nciodm:ExtCodeID="C17740">
                    <nciodm:CDISCSynonym>SAMOA</nciodm:CDISCSynonym>
                    <nciodm:CDISCDefinition>A group of islands in the South Pacific Ocean, about one-half of the way from Hawaii to New Zealand. (NCI)</nciodm:CDISCDefinition>
                    <nciodm:PreferredTerm>Samoa</nciodm:PreferredTerm>
                </EnumeratedItem>
                <EnumeratedItem CodedValue="YEM" nciodm:ExtCodeID="C17264">
                    <nciodm:CDISCSynonym>YEMEN</nciodm:CDISCSynonym>
                    <nciodm:CDISCDefinition>A country in the Middle East, bordering the Arabian Sea, Gulf of Aden, and Red Sea, between Oman and Saudi Arabia. (NCI)</nciodm:CDISCDefinition>
                    <nciodm:PreferredTerm>Yemen</nciodm:PreferredTerm>
                </EnumeratedItem>
                <EnumeratedItem CodedValue="ZAF" nciodm:ExtCodeID="C17151">
                    <nciodm:CDISCSynonym>SOUTH AFRICA</nciodm:CDISCSynonym>
                    <nciodm:CDISCDefinition>A country in Southern Africa, at the southern tip of the continent of Africa. (NCI)</nciodm:CDISCDefinition>
                    <nciodm:PreferredTerm>South Africa</nciodm:PreferredTerm>
                </EnumeratedItem>
                <EnumeratedItem CodedValue="ZMB" nciodm:ExtCodeID="C17267">
                    <nciodm:CDISCSynonym>ZAMBIA</nciodm:CDISCSynonym>
                    <nciodm:CDISCDefinition>A country in Southern Africa, east of Angola. (NCI)</nciodm:CDISCDefinition>
                    <nciodm:PreferredTerm>Zambia</nciodm:PreferredTerm>
                </EnumeratedItem>
                <EnumeratedItem CodedValue="ZWE" nciodm:ExtCodeID="C17268">
                    <nciodm:CDISCSynonym>ZIMBABWE</nciodm:CDISCSynonym>
                    <nciodm:CDISCDefinition>A country in Southern Africa, between South Africa and Zambia. (NCI)</nciodm:CDISCDefinition>
                    <nciodm:PreferredTerm>Zimbabwe</nciodm:PreferredTerm>
                </EnumeratedItem>
                <nciodm:CDISCSubmissionValue>COUNTRY</nciodm:CDISCSubmissionValue>
                <nciodm:CDISCSynonym>Country</nciodm:CDISCSynonym>
                <nciodm:PreferredTerm>CDISC SDTM Country Terminology</nciodm:PreferredTerm>
            </CodeList>
            <CodeList OID="CL.C89966.DDTESTCD" Name="Death Diagnosis Test Code" DataType="text" nciodm:ExtCodeID="C89966" nciodm:CodeListExtensible="No">
                <Description>
                    <TranslatedText xml:lang="en">Terminology for the test codes concerned with the circumstance or condition that results in the death of a living being.</TranslatedText>
                </Description>
                <EnumeratedItem CodedValue="DEATHD" nciodm:ExtCodeID="C81239">
                    <nciodm:CDISCSynonym>Death Diagnosis</nciodm:CDISCSynonym>
                    <nciodm:CDISCDefinition>The circumstance or condition that results in the death of a living being. (NCI)</nciodm:CDISCDefinition>
                    <nciodm:PreferredTerm>Cause of Death</nciodm:PreferredTerm>
                </EnumeratedItem>
                <nciodm:CDISCSubmissionValue>DDTESTCD</nciodm:CDISCSubmissionValue>
                <nciodm:CDISCSynonym>Death Diagnosis Test Code</nciodm:CDISCSynonym>
                <nciodm:PreferredTerm>CDISC SEND Death Diagnosis Test Code Terminology</nciodm:PreferredTerm>
            </CodeList>
            <CodeList OID="CL.C89965.DDTEST" Name="Death Diagnosis Test Name" DataType="text" nciodm:ExtCodeID="C89965" nciodm:CodeListExtensible="No">
                <Description>
                    <TranslatedText xml:lang="en">Terminology for the test names concerned with the circumstance or condition that results in the death of a living being.</TranslatedText>
                </Description>
                <EnumeratedItem CodedValue="Death Diagnosis" nciodm:ExtCodeID="C81239">
                    <nciodm:CDISCSynonym>Death Diagnosis</nciodm:CDISCSynonym>
                    <nciodm:CDISCDefinition>The circumstance or condition that results in the death of a living being. (NCI)</nciodm:CDISCDefinition>
                    <nciodm:PreferredTerm>Cause of Death</nciodm:PreferredTerm>
                </EnumeratedItem>
                <nciodm:CDISCSubmissionValue>DDTEST</nciodm:CDISCSubmissionValue>
                <nciodm:CDISCSynonym>Death Diagnosis Test Name</nciodm:CDISCSynonym>
                <nciodm:PreferredTerm>CDISC SEND Death Diagnosis Test Name Terminology</nciodm:PreferredTerm>
            </CodeList>
            <CodeList OID="CL.C99074.DIR" Name="Directionality" DataType="text" nciodm:ExtCodeID="C99074" nciodm:CodeListExtensible="Yes">
                <Description>
                    <TranslatedText xml:lang="en">CDISC terminology for anatomical location or specimen further detailing directionality.</TranslatedText>
                </Description>
                <EnumeratedItem CodedValue="ANTERIOR" nciodm:ExtCodeID="C25231">
                    <nciodm:CDISCDefinition>Denoting the front portion of the body or a structure.</nciodm:CDISCDefinition>
                    <nciodm:PreferredTerm>Anterior</nciodm:PreferredTerm>
                </EnumeratedItem>
                <EnumeratedItem CodedValue="APICAL" nciodm:ExtCodeID="C25423">
                    <nciodm:CDISCDefinition>Relating to or located at the apex.</nciodm:CDISCDefinition>
                    <nciodm:PreferredTerm>Apical</nciodm:PreferredTerm>
                </EnumeratedItem>
                <EnumeratedItem CodedValue="BASAL" nciodm:ExtCodeID="C90067">
                    <nciodm:CDISCDefinition>Relating to or located at the lowest portion of a structure.</nciodm:CDISCDefinition>
                    <nciodm:PreferredTerm>Basal</nciodm:PreferredTerm>
                </EnumeratedItem>
                <EnumeratedItem CodedValue="CAUDAL" nciodm:ExtCodeID="C73851">
                    <nciodm:CDISCDefinition>Toward the tail in a body.</nciodm:CDISCDefinition>
                    <nciodm:PreferredTerm>Caudal</nciodm:PreferredTerm>
                </EnumeratedItem>
                <EnumeratedItem CodedValue="CENTRAL" nciodm:ExtCodeID="C25445">
                    <nciodm:CDISCDefinition>A point or area that is approximately central within some larger region or structure. (NCI)</nciodm:CDISCDefinition>
                    <nciodm:PreferredTerm>Center</nciodm:PreferredTerm>
                </EnumeratedItem>
                <EnumeratedItem CodedValue="CRANIAL" nciodm:ExtCodeID="C37936">
                    <nciodm:CDISCDefinition>Toward the head in a body.</nciodm:CDISCDefinition>
                    <nciodm:PreferredTerm>Cranial</nciodm:PreferredTerm>
                </EnumeratedItem>
                <EnumeratedItem CodedValue="DEEP" nciodm:ExtCodeID="C25240">
                    <nciodm:CDISCDefinition>Extending relatively far inward. (NCI)</nciodm:CDISCDefinition>
                    <nciodm:PreferredTerm>Deep</nciodm:PreferredTerm>
                </EnumeratedItem>
                <EnumeratedItem CodedValue="DISTAL" nciodm:ExtCodeID="C25237">
                    <nciodm:CDISCDefinition>Situated farthest from a point of reference.</nciodm:CDISCDefinition>
                    <nciodm:PreferredTerm>Distal</nciodm:PreferredTerm>
                </EnumeratedItem>
                <EnumeratedItem CodedValue="DORSAL" nciodm:ExtCodeID="C45874">
                    <nciodm:CDISCDefinition>Pertaining to the back or upper surface of the body.</nciodm:CDISCDefinition>
                    <nciodm:PreferredTerm>Dorsal</nciodm:PreferredTerm>
                </EnumeratedItem>
                <EnumeratedItem CodedValue="DORSOLATERAL" nciodm:ExtCodeID="C90376">
                    <nciodm:CDISCDefinition>Toward the back and side of a body.</nciodm:CDISCDefinition>
                    <nciodm:PreferredTerm>Dorsolateral</nciodm:PreferredTerm>
                </EnumeratedItem>
                <EnumeratedItem CodedValue="FORE" nciodm:ExtCodeID="C90386">
                    <nciodm:CDISCDefinition>Of or involving the front of a main body. (NCI)</nciodm:CDISCDefinition>
                    <nciodm:PreferredTerm>Fore</nciodm:PreferredTerm>
                </EnumeratedItem>
                <EnumeratedItem CodedValue="HIND" nciodm:ExtCodeID="C90393">
                    <nciodm:CDISCDefinition>Of or involving the back of a main body. (NCI)</nciodm:CDISCDefinition>
                    <nciodm:PreferredTerm>Hind</nciodm:PreferredTerm>
                </EnumeratedItem>
                <EnumeratedItem CodedValue="INFERIOR" nciodm:ExtCodeID="C25353">
                    <nciodm:CDISCDefinition>Pertaining to a point below a given reference point.</nciodm:CDISCDefinition>
                    <nciodm:PreferredTerm>Inferior</nciodm:PreferredTerm>
                </EnumeratedItem>
                <EnumeratedItem CodedValue="INNER" nciodm:ExtCodeID="C37980">
                    <nciodm:CDISCDefinition>Inside or closer to the inside of the body or object. (NCI)</nciodm:CDISCDefinition>
                    <nciodm:PreferredTerm>Inner</nciodm:PreferredTerm>
                </EnumeratedItem>
                <EnumeratedItem CodedValue="INTERMEDIATE" nciodm:ExtCodeID="C73705">
                    <nciodm:CDISCDefinition>Located between two points or extremes.</nciodm:CDISCDefinition>
                    <nciodm:PreferredTerm>Intermediate</nciodm:PreferredTerm>
                </EnumeratedItem>
                <EnumeratedItem CodedValue="LOWER" nciodm:ExtCodeID="C25309">
                    <nciodm:CDISCDefinition>The bottom one of two. (NCI)</nciodm:CDISCDefinition>
                    <nciodm:PreferredTerm>Lower</nciodm:PreferredTerm>
                </EnumeratedItem>
                <EnumeratedItem CodedValue="MEDIAL" nciodm:ExtCodeID="C25232">
                    <nciodm:CDISCDefinition>Toward the middle or in a limb toward the median plane.</nciodm:CDISCDefinition>
                    <nciodm:PreferredTerm>Medial</nciodm:PreferredTerm>
                </EnumeratedItem>
                <EnumeratedItem CodedValue="MIDLINE" nciodm:ExtCodeID="C81170">
                    <nciodm:CDISCDefinition>A medial line, especially the medial line or medial plane of the body (or some part of the body).</nciodm:CDISCDefinition>
                    <nciodm:PreferredTerm>Midline</nciodm:PreferredTerm>
                </EnumeratedItem>
                <EnumeratedItem CodedValue="OUTER" nciodm:ExtCodeID="C38166">
                    <nciodm:CDISCDefinition>Being on or toward the outside of the body or object. (NCI)</nciodm:CDISCDefinition>
                    <nciodm:PreferredTerm>Outer</nciodm:PreferredTerm>
                </EnumeratedItem>
                <EnumeratedItem CodedValue="PERIPHERAL" nciodm:ExtCodeID="C25233">
                    <nciodm:CDISCDefinition>On or near an edge or constituting an outer boundary; the outer area. (NCI)</nciodm:CDISCDefinition>
                    <nciodm:PreferredTerm>Peripheral</nciodm:PreferredTerm>
                </EnumeratedItem>
                <EnumeratedItem CodedValue="POSTERIOR" nciodm:ExtCodeID="C25622">
                    <nciodm:CDISCDefinition>Denoting the back portion of the body or a structure.</nciodm:CDISCDefinition>
                    <nciodm:PreferredTerm>Posterior</nciodm:PreferredTerm>
                </EnumeratedItem>
                <EnumeratedItem CodedValue="PROXIMAL" nciodm:ExtCodeID="C25236">
                    <nciodm:CDISCDefinition>Situated nearest to a point of reference.</nciodm:CDISCDefinition>
                    <nciodm:PreferredTerm>Proximal</nciodm:PreferredTerm>
                </EnumeratedItem>
                <EnumeratedItem CodedValue="ROSTRAL" nciodm:ExtCodeID="C94393">
                    <nciodm:CDISCDefinition>Toward the muzzle in the head.</nciodm:CDISCDefinition>
                    <nciodm:PreferredTerm>Rostral</nciodm:PreferredTerm>
                </EnumeratedItem>
                <EnumeratedItem CodedValue="SUPERFICIAL" nciodm:ExtCodeID="C25239">
                    <nciodm:CDISCDefinition>Of or pertaining to the exterior surface. (NCI)</nciodm:CDISCDefinition>
                    <nciodm:PreferredTerm>Superficial</nciodm:PreferredTerm>
                </EnumeratedItem>
                <EnumeratedItem CodedValue="SUPERIOR" nciodm:ExtCodeID="C25235">
                    <nciodm:CDISCDefinition>Pertaining to a point above a given reference point.</nciodm:CDISCDefinition>
                    <nciodm:PreferredTerm>Superior</nciodm:PreferredTerm>
                </EnumeratedItem>
                <EnumeratedItem CodedValue="SURFACE" nciodm:ExtCodeID="C25245">
                    <nciodm:CDISCDefinition>The extended two-dimensional outer layer or area of a three-dimensional object. (NCI)</nciodm:CDISCDefinition>
                    <nciodm:PreferredTerm>Surface</nciodm:PreferredTerm>
                </EnumeratedItem>
                <EnumeratedItem CodedValue="TIP" nciodm:ExtCodeID="C90069">
                    <nciodm:CDISCDefinition>The pointed end of a structure.</nciodm:CDISCDefinition>
                    <nciodm:PreferredTerm>Tip</nciodm:PreferredTerm>
                </EnumeratedItem>
                <EnumeratedItem CodedValue="UPPER" nciodm:ExtCodeID="C25355">
                    <nciodm:CDISCDefinition>The top one of two.</nciodm:CDISCDefinition>
                    <nciodm:PreferredTerm>Upper</nciodm:PreferredTerm>
                </EnumeratedItem>
                <EnumeratedItem CodedValue="VENTRAL" nciodm:ExtCodeID="C45875">
                    <nciodm:CDISCDefinition>Pertaining to the front or lower surface of the body.</nciodm:CDISCDefinition>
                    <nciodm:PreferredTerm>Ventral</nciodm:PreferredTerm>
                </EnumeratedItem>
                <EnumeratedItem CodedValue="VENTROLATERAL" nciodm:ExtCodeID="C98798">
                    <nciodm:CDISCDefinition>Of or pertaining to the front and side of a main body. (NCI)</nciodm:CDISCDefinition>
                    <nciodm:PreferredTerm>Ventrolateral</nciodm:PreferredTerm>
                </EnumeratedItem>
                <nciodm:CDISCSubmissionValue>DIR</nciodm:CDISCSubmissionValue>
                <nciodm:CDISCSynonym>Directionality</nciodm:CDISCSynonym>
                <nciodm:PreferredTerm>CDISC SDTM Directionality Terminology</nciodm:PreferredTerm>
            </CodeList>
            <CodeList OID="CL.C90013.EGLEAD" Name="ECG Lead" DataType="text" nciodm:ExtCodeID="C90013" nciodm:CodeListExtensible="Yes">
                <Description>
                    <TranslatedText xml:lang="en">Terminology related to electrocardiogram lead names.</TranslatedText>
                </Description>
                <EnumeratedItem CodedValue="LEAD aV6" nciodm:ExtCodeID="C90403">
                    <nciodm:CDISCDefinition>An augmented unipolar lead placed at the sixth intercostal space on the midaxillary line. (NCI)</nciodm:CDISCDefinition>
                    <nciodm:PreferredTerm>Lead Site aV6</nciodm:PreferredTerm>
                </EnumeratedItem>
                <EnumeratedItem CodedValue="LEAD aVF" nciodm:ExtCodeID="C90360">
                    <nciodm:CDISCDefinition>An augmented unipolar electrocardiogram limb lead in which the positive (red) electrode is situated on the left pelvic limb and the negative electrode is a combination of the right thoracic limb (white) electrode and the left thoracic limb (black) electrode. Measures the electrical activity of the electrode on the left pelvic limb.</nciodm:CDISCDefinition>
                    <nciodm:PreferredTerm>Augmented Vector Foot</nciodm:PreferredTerm>
                </EnumeratedItem>
                <EnumeratedItem CodedValue="LEAD aVL" nciodm:ExtCodeID="C90361">
                    <nciodm:CDISCDefinition>An augmented unipolar electrocardiogram limb lead in which the positive (black) electrode is situated on the left thoracic limb and the negative electrode is a combination of the right thoracic limb (white) electrode and the left pelvic limb (red) electrode. Measures the electrical activity of the electrode on the left thoracic limb. (NCI)</nciodm:CDISCDefinition>
                    <nciodm:PreferredTerm>Augmented Vector Left</nciodm:PreferredTerm>
                </EnumeratedItem>
                <EnumeratedItem CodedValue="LEAD aVR" nciodm:ExtCodeID="C90362">
                    <nciodm:CDISCDefinition>An augmented unipolar electrocardiogram limb lead in which the positive (white) electrode is situated on the right thoracic limb and the negative electrode is a combination of the left thoracic limb (black) electrode and the left pelvic limb (red) electrode. Measures the electrical activity of the electrode on the right thoracic limb. (NCI)</nciodm:CDISCDefinition>
                    <nciodm:PreferredTerm>Augmented Vector Right</nciodm:PreferredTerm>
                </EnumeratedItem>
                <EnumeratedItem CodedValue="LEAD CM5" nciodm:ExtCodeID="C90404">
                    <nciodm:CDISCDefinition>A bipolar EKG lead with the right thoracic limb electrode placed on the manubrium and left thoracic limb electrode placed at the surface marking of the V5 position (just above the 5th interspace in the anterior axillary line). The left pelvic limb lead acts as a neutral and may be placed anywhere. The C refers to 'clavicle' where it is often placed. (NCI)</nciodm:CDISCDefinition>
                    <nciodm:PreferredTerm>Lead Site CM5</nciodm:PreferredTerm>
                </EnumeratedItem>
                <EnumeratedItem CodedValue="LEAD CV5RL" nciodm:ExtCodeID="C90405">
                    <nciodm:CDISCDefinition>A unipolar chest lead used mostly in large animals. Placed on the sixth ICS on the right side of the thorax along a line parallel to the level of the point of the humeralradial joint.</nciodm:CDISCDefinition>
                    <nciodm:PreferredTerm>Lead Site CV5RL</nciodm:PreferredTerm>
                </EnumeratedItem>
                <EnumeratedItem CodedValue="LEAD CV6LL" nciodm:ExtCodeID="C90406">
                    <nciodm:CDISCDefinition>V1 electrode (+) placed in the 6th intercostal space on the left side of the thorax along a line parallel to the level of the point of the humeralradial joint.</nciodm:CDISCDefinition>
                    <nciodm:PreferredTerm>Lead Site CV6LL</nciodm:PreferredTerm>
                </EnumeratedItem>
                <EnumeratedItem CodedValue="LEAD CV6LU" nciodm:ExtCodeID="C90407">
                    <nciodm:CDISCDefinition>V2 electrode (+) placed in the 6th intercostal space on the left side of the thorax along a line parallel to the level of the point of the shoulder. (NCI)</nciodm:CDISCDefinition>
                    <nciodm:PreferredTerm>Lead Site CV6LU</nciodm:PreferredTerm>
                </EnumeratedItem>
                <EnumeratedItem CodedValue="LEAD I" nciodm:ExtCodeID="C90408">
                    <nciodm:CDISCDefinition>A bipolar electrocardiogram limb lead which records the voltage between the negative electrode on the right thoracic limb and the positive electrode on the left thoracic limb. (NCI)</nciodm:CDISCDefinition>
                    <nciodm:PreferredTerm>Lead Site I</nciodm:PreferredTerm>
                </EnumeratedItem>
                <EnumeratedItem CodedValue="LEAD II" nciodm:ExtCodeID="C90409">
                    <nciodm:CDISCDefinition>A bipolar electrocardiogram limb lead which records the voltage between the negative electrode on the right thoracic limb and the positive electrode on the left pelvic limb. (NCI)</nciodm:CDISCDefinition>
                    <nciodm:PreferredTerm>Lead Site II</nciodm:PreferredTerm>
                </EnumeratedItem>
                <EnumeratedItem CodedValue="LEAD III" nciodm:ExtCodeID="C90410">
                    <nciodm:CDISCDefinition>A bipolar electrocardiogram limb lead which records the voltage between the negative electrode on the left thoracic limb and the positive electrode on the left pelvic limb. (NCI)</nciodm:CDISCDefinition>
                    <nciodm:PreferredTerm>Lead Site III</nciodm:PreferredTerm>
                </EnumeratedItem>
                <EnumeratedItem CodedValue="LEAD rV2" nciodm:ExtCodeID="C90411">
                    <nciodm:CDISCDefinition>A unipolar precordial lead placed at the second intercostal space to the left of the sternum. (NCI)</nciodm:CDISCDefinition>
                    <nciodm:PreferredTerm>Lead Site rV2</nciodm:PreferredTerm>
                </EnumeratedItem>
                <EnumeratedItem CodedValue="LEAD V1" nciodm:ExtCodeID="C90412">
                    <nciodm:CDISCDefinition>A unipolar electrocardiogram lead site; the electrode is placed at the fourth intercostal space on the anterior chest wall (between ribs 4 and 5) to the right of the sternal border. In small animals, it is placed at the right fifth intercostal space near the sternum. (NCI)</nciodm:CDISCDefinition>
                    <nciodm:PreferredTerm>Lead Site V1</nciodm:PreferredTerm>
                </EnumeratedItem>
                <EnumeratedItem CodedValue="LEAD V10" nciodm:ExtCodeID="C90413">
                    <nciodm:CDISCDefinition>A unipolar chest lead at which the electrode is placed over the dorsal spinous process of 7th thoracic vertebra. (NCI)</nciodm:CDISCDefinition>
                    <nciodm:PreferredTerm>Lead Site V10</nciodm:PreferredTerm>
                </EnumeratedItem>
                <EnumeratedItem CodedValue="LEAD V2" nciodm:ExtCodeID="C90414">
                    <nciodm:CDISCDefinition>A unipolar electrocardiogram lead site; the electrode is placed on the anterior chest wall at the fourth intercostal space (between ribs 4 and 5) to the left of the sternal border. In small animals it corresponds to V2-V3 where it is placed at the 6th left intercostal space near the sternum. In large animals it is placed over the 6th rib at the level of the costochondral junction on the left side of the thorax.</nciodm:CDISCDefinition>
                    <nciodm:PreferredTerm>Lead Site V2</nciodm:PreferredTerm>
                </EnumeratedItem>
                <EnumeratedItem CodedValue="LEAD V3" nciodm:ExtCodeID="C90415">
                    <nciodm:CDISCDefinition>A unipolar electrocardiogram lead site; the electrode is placed on the anterior chest wall midway between leads V2 and V4. In large and small animals, it is placed over the dorsal spinous process of the 7th thoracic vertebra. (NCI)</nciodm:CDISCDefinition>
                    <nciodm:PreferredTerm>Lead Site V3</nciodm:PreferredTerm>
                </EnumeratedItem>
                <EnumeratedItem CodedValue="LEAD V4" nciodm:ExtCodeID="C90416">
                    <nciodm:CDISCDefinition>A unipolar electrocardiogram lead site; the electrode is placed at the fifth intercostal space on the anterior chest wall (between ribs 5 and 6) at the left midclavicular line. In small animals it corresponds to V4-V6 where it is placed at the 6th left intercostal space near the costochondral junction. In large animals it is placed over the 6th rib at the level of a horizontal line drawn through the scapulohumeral articulation on the left side of the thorax. (NCI)</nciodm:CDISCDefinition>
                    <nciodm:PreferredTerm>Lead Site V4</nciodm:PreferredTerm>
                </EnumeratedItem>
                <EnumeratedItem CodedValue="LEAD V5" nciodm:ExtCodeID="C90417">
                    <nciodm:CDISCDefinition>A unipolar electrocardiogram lead site; the electrode is placed on the anterior chest wall level with lead V4 at the left anterior axillary line. In large animals it is placed on the sixth ICS on the right side of the thorax along a line parallel to the level of the point of the shoulder corresponding to the electrical center of the heart (central terminal). (NCI)</nciodm:CDISCDefinition>
                    <nciodm:PreferredTerm>Lead Site V5</nciodm:PreferredTerm>
                </EnumeratedItem>
                <EnumeratedItem CodedValue="LEAD V6" nciodm:ExtCodeID="C90418">
                    <nciodm:CDISCDefinition>A unipolar electrocardiogram lead site at which the electrode is placed on the anterior chest wall level with lead V5 at the left midaxillary line .</nciodm:CDISCDefinition>
                    <nciodm:PreferredTerm>Lead Site V6</nciodm:PreferredTerm>
                </EnumeratedItem>
                <nciodm:CDISCSubmissionValue>EGLEAD</nciodm:CDISCSubmissionValue>
                <nciodm:CDISCSynonym>ECG Lead</nciodm:CDISCSynonym>
                <nciodm:PreferredTerm>CDISC SDTM Electrocardiogram Lead Terminology</nciodm:PreferredTerm>
            </CodeList>
            <CodeList OID="CL.C71150.EGSTRESC" Name="ECG Result" DataType="text" nciodm:ExtCodeID="C71150" nciodm:CodeListExtensible="Yes">
                <Description>
                    <TranslatedText xml:lang="en">Terminology codelist used with ECG Findings and Abnormalities within CDISC.</TranslatedText>
                </Description>
                <EnumeratedItem CodedValue="1ST DEGREE AV BLOCK" nciodm:ExtCodeID="C111088">
                    <nciodm:CDISCSynonym>1st degree AV block</nciodm:CDISCSynonym>
                    <nciodm:CDISCSynonym>PR Prolongation</nciodm:CDISCSynonym>
                    <nciodm:CDISCSynonym>Prolonged PR interval</nciodm:CDISCSynonym>
                    <nciodm:CDISCDefinition>An electrocardiographic finding of prolonged PR interval for a specific population. For adults one common threshold is a PR interval greater than 0.20 seconds. Note that other thresholds may be applicable.</nciodm:CDISCDefinition>
                    <nciodm:PreferredTerm>AV Block First Degree by ECG Finding</nciodm:PreferredTerm>
                </EnumeratedItem>
                <EnumeratedItem CodedValue="2:1 AV BLOCK" nciodm:ExtCodeID="C71044">
                    <nciodm:CDISCSynonym>2:1 AV block</nciodm:CDISCSynonym>
                    <nciodm:CDISCDefinition>An electrocardiographic finding of a supraventricular rhythm where the ratio of impulses generated above the atrioventricular node to the number of impulses conducted through to the ventricles is 2:1. This is manifest on the ECG as 2 P waves per QRS complex.</nciodm:CDISCDefinition>
                    <nciodm:PreferredTerm>2:1 Atrioventricular Block by ECG Finding</nciodm:PreferredTerm>
                </EnumeratedItem>
                <EnumeratedItem CodedValue="2ND DEGREE AV BLOCK" nciodm:ExtCodeID="C62016">
                    <nciodm:CDISCSynonym>2nd degree AV block</nciodm:CDISCSynonym>
                    <nciodm:CDISCDefinition>An electrocardiographic finding of intermittent failure of atrial electrical impulse conduction to the ventricles. This is manifest on the ECG by regular P waves which intermittently are not followed by QRS complexes.</nciodm:CDISCDefinition>
                    <nciodm:PreferredTerm>AV Block Second Degree by ECG Finding</nciodm:PreferredTerm>
                </EnumeratedItem>
                <EnumeratedItem CodedValue="3RD DEGREE AV BLOCK" nciodm:ExtCodeID="C111091">
                    <nciodm:CDISCSynonym>3rd degree AV block</nciodm:CDISCSynonym>
                    <nciodm:CDISCSynonym>Complete Heart Block</nciodm:CDISCSynonym>
                    <nciodm:CDISCSynonym>AV block, complete (third-degree)</nciodm:CDISCSynonym>
                    <nciodm:CDISCDefinition>An electrocardiographic finding of complete failure of atrial electrical impulse conduction to the ventricles. This is manifest on the ECG by disassociation of atrial and ventricular rhythms. The atrial rate must be faster than the ventricular rate.</nciodm:CDISCDefinition>
                    <nciodm:PreferredTerm>AV Block Third Degree by ECG Finding</nciodm:PreferredTerm>
                </EnumeratedItem>
                <EnumeratedItem CodedValue="ACCELERATED IDIOVENTRICULAR RHYTHM" nciodm:ExtCodeID="C62266">
                    <nciodm:CDISCSynonym>Accelerated idioventricular rhythm</nciodm:CDISCSynonym>
                    <nciodm:CDISCDefinition>An electrocardiographic finding of idioventricular rhythm with a rate greater than 50 beats per minute.</nciodm:CDISCDefinition>
                    <nciodm:PreferredTerm>Accelerated Idioventricular Rhythm by ECG Finding</nciodm:PreferredTerm>
                </EnumeratedItem>
                <EnumeratedItem CodedValue="ACUTE ANTERIOR WALL MYOCARDIAL INFARCTION" nciodm:ExtCodeID="C71065">
                    <nciodm:CDISCSynonym>Acute Anterior Wall Myocardial Infarction</nciodm:CDISCSynonym>
                    <nciodm:CDISCSynonym>Acute Anterior MI</nciodm:CDISCSynonym>
                    <nciodm:CDISCDefinition>An electrocardiographic finding of pathologic Q waves with accompanying ST elevation in leads V3 and V4, which is suggestive of acute myocardial infarction of the anterior wall of the left ventricle.</nciodm:CDISCDefinition>
                    <nciodm:PreferredTerm>Acute Anterior Myocardial Infarction by ECG Finding</nciodm:PreferredTerm>
                </EnumeratedItem>
                <EnumeratedItem CodedValue="ACUTE ANTEROLATERAL WALL MYOCARDIAL INFARCTION" nciodm:ExtCodeID="C102591">
                    <nciodm:CDISCSynonym>Acute Anterolateral Wall Myocardial Infarction</nciodm:CDISCSynonym>
                    <nciodm:CDISCDefinition>An electrocardiographic finding of pathologic Q waves with accompanying ST elevation in leads V3 through V6, which is suggestive of acute myocardial infarction of the anterolateral wall of the left ventricle.</nciodm:CDISCDefinition>
                    <nciodm:PreferredTerm>Acute Anterolateral Myocardial Infarction by ECG Finding</nciodm:PreferredTerm>
                </EnumeratedItem>
                <EnumeratedItem CodedValue="ACUTE ANTEROSEPTAL WALL MYOCARDIAL INFARCTION" nciodm:ExtCodeID="C102592">
                    <nciodm:CDISCSynonym>Acute Anteroseptal Wall Myocardial Infarction</nciodm:CDISCSynonym>
                    <nciodm:CDISCSynonym>Acute anteroseptal MI</nciodm:CDISCSynonym>
                    <nciodm:CDISCDefinition>An electrocardiographic finding of pathologic Q waves with accompanying ST elevation in leads V1 through V4, which is suggestive of acute myocardial infarction of the anteroseptal wall of the left ventricle.</nciodm:CDISCDefinition>
                    <nciodm:PreferredTerm>Acute Anteroseptal Myocardial Infarction by ECG Finding</nciodm:PreferredTerm>
                </EnumeratedItem>
                <EnumeratedItem CodedValue="ACUTE EXTENSIVE ANTERIOR WALL MYOCARDIAL INFARCTION" nciodm:ExtCodeID="C106496">
                    <nciodm:CDISCDefinition>An electrocardiographic finding of pathologic Q waves with accompanying ST elevation in leads V1 to V6, I and aVL, which is suggestive of acute myocardial infarction involving the anterior and anterolateral walls of the left ventricle.</nciodm:CDISCDefinition>
                    <nciodm:PreferredTerm>Acute Extensive Anterior Wall Myocardial Infarction by ECG Finding</nciodm:PreferredTerm>
                </EnumeratedItem>
                <EnumeratedItem CodedValue="ACUTE HIGH LATERAL WALL MYOCARDIAL INFARCTION" nciodm:ExtCodeID="C102593">
                    <nciodm:CDISCSynonym>Acute High Lateral Wall Myocardial Infarction</nciodm:CDISCSynonym>
                    <nciodm:CDISCDefinition>An electrocardiographic finding of pathologic Q waves with accompanying ST elevation in leads I and aVL, which is suggestive of acute myocardial infarction of the high lateral wall of the left ventricle.</nciodm:CDISCDefinition>
                    <nciodm:PreferredTerm>Acute High Lateral Myocardial Infarction by ECG Finding</nciodm:PreferredTerm>
                </EnumeratedItem>
                <EnumeratedItem CodedValue="ACUTE INFERIOR WALL MYOCARDIAL INFARCTION" nciodm:ExtCodeID="C71066">
                    <nciodm:CDISCSynonym>Acute Inferior Wall Myocardial Infarction</nciodm:CDISCSynonym>
                    <nciodm:CDISCSynonym>Acute Inferior MI</nciodm:CDISCSynonym>
                    <nciodm:CDISCDefinition>An electrocardiographic finding of pathologic Q waves with accompanying ST elevation in leads III, aVF and often II, which is suggestive of acute myocardial infarction of the inferior wall of the left ventricle.</nciodm:CDISCDefinition>
                    <nciodm:PreferredTerm>Acute Inferior Myocardial Infarction by ECG Finding</nciodm:PreferredTerm>
                </EnumeratedItem>
                <EnumeratedItem CodedValue="ACUTE LATERAL WALL MYOCARDIAL INFARCTION" nciodm:ExtCodeID="C71067">
                    <nciodm:CDISCSynonym>Acute Lateral Wall Myocardial Infarction</nciodm:CDISCSynonym>
                    <nciodm:CDISCSynonym>Acute Lateral MI</nciodm:CDISCSynonym>
                    <nciodm:CDISCDefinition>An electrocardiographic finding of pathologic Q waves with accompanying ST elevation in leads V5, V6, I and aVL, which is suggestive of acute myocardial infarction of the lateral wall of the left ventricle.</nciodm:CDISCDefinition>
                    <nciodm:PreferredTerm>Acute Lateral Myocardial Infarction by ECG Finding</nciodm:PreferredTerm>
                </EnumeratedItem>
                <EnumeratedItem CodedValue="ACUTE MYOCARDIAL INFARCTION" nciodm:ExtCodeID="C101596">
                    <nciodm:CDISCSynonym>Acute Myocardial Infarction</nciodm:CDISCSynonym>
                    <nciodm:CDISCDefinition>An electrocardiographic finding showing a current of injury with ST elevation. No specification is provided for localization.</nciodm:CDISCDefinition>
                    <nciodm:PreferredTerm>Acute Myocardial Infarction by ECG Finding</nciodm:PreferredTerm>
                </EnumeratedItem>
                <EnumeratedItem CodedValue="ACUTE POSTERIOR WALL MYOCARDIAL INFARCTION" nciodm:ExtCodeID="C71068">
                    <nciodm:CDISCSynonym>Acute Posterior Wall Myocardial Infarction</nciodm:CDISCSynonym>
                    <nciodm:CDISCSynonym>Acute Posterior MI</nciodm:CDISCSynonym>
                    <nciodm:CDISCDefinition>An electrocardiographic finding in leads V1 or V2 of an initial R wave duration greater than or equal to 40 ms, R wave greater than S wave, upright T wave, with accompanying ST elevation, which is suggestive of acute myocardial infarction of the posterior wall of the left ventricle. Evidence of inferior or lateral myocardial infarction is usually also present.</nciodm:CDISCDefinition>
                    <nciodm:PreferredTerm>Acute Posterior Myocardial Infarction by ECG Finding</nciodm:PreferredTerm>
                </EnumeratedItem>
                <EnumeratedItem CodedValue="ACUTE RIGHT VENTRICULAR WALL MYOCARDIAL INFARCTION" nciodm:ExtCodeID="C102594">
                    <nciodm:CDISCSynonym>Acute Right Ventricular Wall Myocardial Infarction</nciodm:CDISCSynonym>
                    <nciodm:CDISCSynonym>Acute Right ventricular MI</nciodm:CDISCSynonym>
                    <nciodm:CDISCDefinition>An electrocardiographic finding in leads V1 or V2 of an initial R wave duration greater than or equal to 40 ms, R wave greater than S wave, upright T wave, with accompanying ST elevation, which is suggestive of acute myocardial infarction of the ventricular wall of the left ventricle. Evidence of inferior or lateral myocardial infarction is usually also present.</nciodm:CDISCDefinition>
                    <nciodm:PreferredTerm>Acute Right Ventricular Myocardial Infarction by ECG Finding</nciodm:PreferredTerm>
                </EnumeratedItem>
                <EnumeratedItem CodedValue="ACUTE SEPTAL WALL MYOCARDIAL INFARCTION" nciodm:ExtCodeID="C102595">
                    <nciodm:CDISCSynonym>Acute Septal Wall Myocardial Infarction</nciodm:CDISCSynonym>
                    <nciodm:CDISCDefinition>An electrocardiographic finding of pathologic Q waves with accompanying ST elevation in leads V1, V2 and often V3, which is suggestive of acute myocardial infarction of the intraventricular septum.</nciodm:CDISCDefinition>
                    <nciodm:PreferredTerm>Acute Septal Myocardial Infarction by ECG Finding</nciodm:PreferredTerm>
                </EnumeratedItem>
                <EnumeratedItem CodedValue="ADVANCED/HIGH GRADE AV BLOCK" nciodm:ExtCodeID="C102642">
                    <nciodm:CDISCSynonym>Advanced/High Grade AV Block</nciodm:CDISCSynonym>
                    <nciodm:CDISCDefinition>An electrocardiographic finding of intermittent failure of atrial electrical impulse conduction to the ventricles, characterized by two or more consecutive non-conducted P waves.</nciodm:CDISCDefinition>
                    <nciodm:PreferredTerm>High Grade Atrioventricular Block by ECG Finding</nciodm:PreferredTerm>
                </EnumeratedItem>
                <EnumeratedItem CodedValue="ANTERIOR WALL MYOCARDIAL INFARCTION" nciodm:ExtCodeID="C71069">
                    <nciodm:CDISCSynonym>Anterior Wall Myocardial Infarction</nciodm:CDISCSynonym>
                    <nciodm:CDISCSynonym>Anterior MI</nciodm:CDISCSynonym>
                    <nciodm:CDISCDefinition>An electrocardiographic finding of pathologic Q waves in leads V3 and V4, which is suggestive of myocardial infarction of the anterior wall of the left ventricle.</nciodm:CDISCDefinition>
                    <nciodm:PreferredTerm>Anterior Myocardial Infarction by ECG Finding</nciodm:PreferredTerm>
                </EnumeratedItem>
                <EnumeratedItem CodedValue="ANTEROLATERAL WALL MYOCARDIAL INFARCTION" nciodm:ExtCodeID="C35303">
                    <nciodm:CDISCSynonym>Anterolateral Wall Myocardial Infarction</nciodm:CDISCSynonym>
                    <nciodm:CDISCDefinition>An electrocardiographic finding of pathologic Q waves in leads V3 through V6, which is suggestive of myocardial infarction of the anterolateral wall of the left ventricle.</nciodm:CDISCDefinition>
                    <nciodm:PreferredTerm>Anterolateral Myocardial Infarction by ECG Finding</nciodm:PreferredTerm>
                </EnumeratedItem>
                <EnumeratedItem CodedValue="ANTEROSEPTAL WALL MYOCARDIAL INFARCTION" nciodm:ExtCodeID="C35304">
                    <nciodm:CDISCSynonym>Anteroseptal Wall Myocardial Infarction</nciodm:CDISCSynonym>
                    <nciodm:CDISCSynonym>Anteroseptal MI</nciodm:CDISCSynonym>
                    <nciodm:CDISCDefinition>An electrocardiographic finding of pathologic Q waves in leads V1 through V4, which is suggestive of myocardial infarction of the anteroseptal wall of the left ventricle.</nciodm:CDISCDefinition>
                    <nciodm:PreferredTerm>Anteroseptal Myocardial Infarction by ECG Finding</nciodm:PreferredTerm>
                </EnumeratedItem>
                <EnumeratedItem CodedValue="ATRIAL BIGEMINY" nciodm:ExtCodeID="C102596">
                    <nciodm:CDISCSynonym>Atrial Bigeminy</nciodm:CDISCSynonym>
                    <nciodm:CDISCDefinition>An electrocardiographic finding of a sinus beat followed by a premature atrial complexes for three or more consecutive cycles; a regularly irregular rhythm of normal and abnormal P waves in a 1-1 ratio.</nciodm:CDISCDefinition>
                    <nciodm:PreferredTerm>Atrial Bigeminy by ECG Finding</nciodm:PreferredTerm>
                </EnumeratedItem>
                <EnumeratedItem CodedValue="ATRIAL COUPLETS" nciodm:ExtCodeID="C102597">
                    <nciodm:CDISCSynonym>Atrial Couplets</nciodm:CDISCSynonym>
                    <nciodm:CDISCDefinition>An electrocardiographic finding in which two premature atrial complexes occur sequentially.</nciodm:CDISCDefinition>
                    <nciodm:PreferredTerm>Atrial Couplet by ECG Finding</nciodm:PreferredTerm>
                </EnumeratedItem>
                <EnumeratedItem CodedValue="ATRIAL ENLARGEMENT" nciodm:ExtCodeID="C71039">
                    <nciodm:CDISCSynonym>Atrial Enlargement</nciodm:CDISCSynonym>
                    <nciodm:CDISCDefinition>An electrocardiographic finding which comprises left, right or bilateral atrial enlargement. This is may be characterized by prolonged P wave duration, increased P wave amplitude, or multi-component P waves.</nciodm:CDISCDefinition>
                    <nciodm:PreferredTerm>Atrial Enlargement by ECG Finding</nciodm:PreferredTerm>
                </EnumeratedItem>
                <EnumeratedItem CodedValue="ATRIAL FIBRILLATION" nciodm:ExtCodeID="C111092">
                    <nciodm:CDISCSynonym>Atrial fibrillation</nciodm:CDISCSynonym>
                    <nciodm:CDISCDefinition>An electrocardiographic finding of a supraventricular arrhythmia characterized by the replacement of consistent P waves by rapid oscillations or fibrillatory waves that vary in size, shape and timing and are accompanied by an irregularly irregular ventricular response.</nciodm:CDISCDefinition>
                    <nciodm:PreferredTerm>Atrial Fibrillation by ECG Finding</nciodm:PreferredTerm>
                </EnumeratedItem>
                <EnumeratedItem CodedValue="ATRIAL FLUTTER" nciodm:ExtCodeID="C111094">
                    <nciodm:CDISCSynonym>Atrial flutter</nciodm:CDISCSynonym>
                    <nciodm:CDISCDefinition>An electrocardiographic finding of an organized, regular atrial rhythm with atrial rate of 240-340 beats per minute. Multiple P waves typically appear in the inferior leads in a saw tooth like pattern between the QRS complexes.</nciodm:CDISCDefinition>
                    <nciodm:PreferredTerm>Atrial Flutter by ECG Finding</nciodm:PreferredTerm>
                </EnumeratedItem>
                <EnumeratedItem CodedValue="ATRIAL TACHYCARDIA" nciodm:ExtCodeID="C111105">
                    <nciodm:CDISCSynonym>Atrial tachycardia</nciodm:CDISCSynonym>
                    <nciodm:CDISCDefinition>An electrocardiographic finding of an organized, regular atrial rhythm with atrial rate between 101 and 240 beats per minute. The P wave morphology must be distinct from the sinus P wave morphology.</nciodm:CDISCDefinition>
                    <nciodm:PreferredTerm>Atrial Tachycardia by ECG Finding</nciodm:PreferredTerm>
                </EnumeratedItem>
                <EnumeratedItem CodedValue="ATRIAL TRIGEMINY" nciodm:ExtCodeID="C102598">
                    <nciodm:CDISCSynonym>Atrial Trigeminy</nciodm:CDISCSynonym>
                    <nciodm:CDISCDefinition>An electrocardiographic finding of two sinus beats followed by a premature atrial complex for 3 or more consecutive cycles; a regularly irregular rhythm of normal and abnormal P waves in a 2-1 ratio.</nciodm:CDISCDefinition>
                    <nciodm:PreferredTerm>Atrial Trigeminy by ECG Finding</nciodm:PreferredTerm>
                </EnumeratedItem>
                <EnumeratedItem CodedValue="ATRIOVENTRICULAR DISSOCIATION" nciodm:ExtCodeID="C71045">
                    <nciodm:CDISCSynonym>Atrioventricular dissociation</nciodm:CDISCSynonym>
                    <nciodm:CDISCSynonym>AV Dissociation</nciodm:CDISCSynonym>
                    <nciodm:CDISCDefinition>An electrocardiographic finding in which the electrical activity of the atria and ventricles are independent of one another.</nciodm:CDISCDefinition>
                    <nciodm:PreferredTerm>Atrioventricular Dissociation by ECG Finding</nciodm:PreferredTerm>
                </EnumeratedItem>
                <EnumeratedItem CodedValue="AV MOBITZ I" nciodm:ExtCodeID="C111089">
                    <nciodm:CDISCSynonym>AV Mobitz I</nciodm:CDISCSynonym>
                    <nciodm:CDISCSynonym>Wenckebach</nciodm:CDISCSynonym>
                    <nciodm:CDISCSynonym>Second degree AV block- Mobitz type I</nciodm:CDISCSynonym>
                    <nciodm:CDISCSynonym>Mobitz I Second Degree AV Block</nciodm:CDISCSynonym>
                    <nciodm:CDISCSynonym>Second-degree AV block, Mobitz type I (Wenckebach)</nciodm:CDISCSynonym>
                    <nciodm:CDISCSynonym>Type 1 2nd degree AV Block</nciodm:CDISCSynonym>
                    <nciodm:CDISCDefinition>An electrocardiographic finding of intermittent failure of atrial electrical impulse conduction to the ventricles, characterized by a progressively lengthening PR interval prior to the block of an atrial impulse.</nciodm:CDISCDefinition>
                    <nciodm:PreferredTerm>AV Block Second Degree Mobitz Type I by ECG Finding</nciodm:PreferredTerm>
                </EnumeratedItem>
                <EnumeratedItem CodedValue="AV MOBITZ II" nciodm:ExtCodeID="C111090">
                    <nciodm:CDISCSynonym>AV Mobitz II</nciodm:CDISCSynonym>
                    <nciodm:CDISCSynonym>Second degree AV block- Mobitz type II</nciodm:CDISCSynonym>
                    <nciodm:CDISCSynonym>Mobitz II Second Degree AV Block</nciodm:CDISCSynonym>
                    <nciodm:CDISCSynonym>Second-degree AV block, Mobitz type II</nciodm:CDISCSynonym>
                    <nciodm:CDISCSynonym>Type 2 2nd degree AV Block</nciodm:CDISCSynonym>
                    <nciodm:CDISCDefinition>An electrocardiographic finding of intermittent failure of atrial electrical impulse conduction to the ventricles, characterized by a relatively constant PR interval prior to the block of an atrial impulse.</nciodm:CDISCDefinition>
                    <nciodm:PreferredTerm>AV Block Second Degree Mobitz Type II by ECG Finding</nciodm:PreferredTerm>
                </EnumeratedItem>
                <EnumeratedItem CodedValue="AV NODE RE-ENTRY" nciodm:ExtCodeID="C35058">
                    <nciodm:CDISCSynonym>AV node re-entry</nciodm:CDISCSynonym>
                    <nciodm:CDISCDefinition>An electrocardiographic finding of a regular supraventricular tachycardia due to reentry within the AV node. It is characterized by P waves which typically occurs nearly simultaneously with the QRS complex, resulting in a P wave which is obscured by the QRS, merged with the QRS or which may follow the QRS.</nciodm:CDISCDefinition>
                    <nciodm:PreferredTerm>Atrioventricular Nodal Reentry Tachycardia by ECG Finding</nciodm:PreferredTerm>
                </EnumeratedItem>
                <EnumeratedItem CodedValue="AV RE-ENTRANT TACHYCARDIA" nciodm:ExtCodeID="C62261">
                    <nciodm:CDISCSynonym>AV re-entrant tachycardia</nciodm:CDISCSynonym>
                    <nciodm:CDISCDefinition>An electrocardiographic finding of a regular supraventricular tachycardia which utilizes an atrioventricular bypass tract as its retrograde limb (orthodromic tachycardia) or as its antegrade limb (antidromic tachycardia). QRS complexes during sinus rhythm may show preexcitation. During orthodromic tachycardia the preexcitation is not present and a retrograde P wave may appear after the QRS complex. During antidromic tachycardia the QRS complex is preexcited.</nciodm:CDISCDefinition>
                    <nciodm:PreferredTerm>Atrioventricular Reentrant Tachycardia by ECG Finding</nciodm:PreferredTerm>
                </EnumeratedItem>
                <EnumeratedItem CodedValue="BIFASCICULAR BLOCK" nciodm:ExtCodeID="C71046">
                    <nciodm:CDISCSynonym>Bifascicular block</nciodm:CDISCSynonym>
                    <nciodm:CDISCDefinition>An electrocardiographic finding comprising right bundle branch block and left anterior fascicular block, or right bundle branch block and left posterior fascicular block. Defects occurring in two of the three divisions of the conduction system of the heart are considered bifascicular blocks. Technically left bundle branch block may be considered a bifascicular block. (NCI)</nciodm:CDISCDefinition>
                    <nciodm:PreferredTerm>Bifascicular Block by ECG Finding</nciodm:PreferredTerm>
                </EnumeratedItem>
                <EnumeratedItem CodedValue="BIVENTRICULAR HYPERTROPHY" nciodm:ExtCodeID="C106502">
                    <nciodm:CDISCDefinition>An electrocardiographic finding suggestive of enlargement or thickening of both ventricles, with a combination of findings which are related to LVH and RVH, such as voltage criteria for LVH in the presence of marked right axis deviation.</nciodm:CDISCDefinition>
                    <nciodm:PreferredTerm>Biventricular Hypertrophy by ECG Finding</nciodm:PreferredTerm>
                </EnumeratedItem>
                <EnumeratedItem CodedValue="BORDERLINE QTcB" nciodm:ExtCodeID="C92228">
                    <nciodm:CDISCSynonym>Borderline QTcB</nciodm:CDISCSynonym>
                    <nciodm:CDISCDefinition>An electrocardiographic finding in which the QT interval corrected for heart rate using Bazett's formula is slightly prolonged. Thresholds for different age, gender, and patient populations exist.</nciodm:CDISCDefinition>
                    <nciodm:PreferredTerm>Borderline QTcB</nciodm:PreferredTerm>
                </EnumeratedItem>
                <EnumeratedItem CodedValue="BORDERLINE QTcF" nciodm:ExtCodeID="C92229">
                    <nciodm:CDISCSynonym>Borderline QTcF</nciodm:CDISCSynonym>
                    <nciodm:CDISCDefinition>An electrocardiographic finding in which the QT interval corrected for heart rate using Fridericia's formula is slightly prolonged. Thresholds for different age, gender, and patient populations exist.</nciodm:CDISCDefinition>
                    <nciodm:PreferredTerm>Borderline QTcF</nciodm:PreferredTerm>
                </EnumeratedItem>
                <EnumeratedItem CodedValue="BRADYCARDIA" nciodm:ExtCodeID="C111120">
                    <nciodm:CDISCSynonym>Bradycardia</nciodm:CDISCSynonym>
                    <nciodm:CDISCDefinition>An electrocardiographic finding of abnormally slow heart rate. Thresholds for different age, gender, and patient populations exist.</nciodm:CDISCDefinition>
                    <nciodm:PreferredTerm>Bradycardia by ECG Finding</nciodm:PreferredTerm>
                </EnumeratedItem>
                <EnumeratedItem CodedValue="BRUGADA SYNDROME PATTERN" nciodm:ExtCodeID="C106503">
                    <nciodm:CDISCDefinition>An electrocardiographic finding of complete or incomplete right bundle branch block accompanied by ST elevation in leads V1-V3. This may be noted at rest or can be provoked by medication challenge.</nciodm:CDISCDefinition>
                    <nciodm:PreferredTerm>Brugada Syndrome Pattern by ECG Finding</nciodm:PreferredTerm>
                </EnumeratedItem>
                <EnumeratedItem CodedValue="DELTA WAVE" nciodm:ExtCodeID="C62258">
                    <nciodm:CDISCSynonym>Delta wave</nciodm:CDISCSynonym>
                    <nciodm:CDISCDefinition>An electrocardiographic finding of initial slurring (delta wave) of the QRS complex due to the presence of an accessory pathway. This characteristic ECG pattern is typically seen in Wolff-Parkinson-White syndrome.</nciodm:CDISCDefinition>
                    <nciodm:PreferredTerm>Delta Wave by ECG Finding</nciodm:PreferredTerm>
                </EnumeratedItem>
                <EnumeratedItem CodedValue="DEXTROCARDIA" nciodm:ExtCodeID="C102623">
                    <nciodm:CDISCSynonym>Dextrocardia</nciodm:CDISCSynonym>
                    <nciodm:CDISCDefinition>An electrocardiographic finding suggestive of dextrocardia with situs inversus, characterized by reversal of normal anterior R wave progression and the appearance of reversal of the right and left arm electrodes.</nciodm:CDISCDefinition>
                    <nciodm:PreferredTerm>Dextrocardia by ECG Finding</nciodm:PreferredTerm>
                </EnumeratedItem>
                <EnumeratedItem CodedValue="EARLY R WAVE TRANSITION" nciodm:ExtCodeID="C102628">
                    <nciodm:CDISCSynonym>Early R Wave Transition</nciodm:CDISCSynonym>
                    <nciodm:CDISCSynonym>Early R Wave Progression</nciodm:CDISCSynonym>
                    <nciodm:CDISCDefinition>An electrocardiographic finding where the amplitude of the R wave becomes greater than the amplitude of the S wave in the QRS complex at an unusually early point in the precordial leads, usually in leads V1 or V2.</nciodm:CDISCDefinition>
                    <nciodm:PreferredTerm>Early R Wave Transition by ECG Finding</nciodm:PreferredTerm>
                </EnumeratedItem>
                <EnumeratedItem CodedValue="EARLY REPOLARIZATION" nciodm:ExtCodeID="C102629">
                    <nciodm:CDISCSynonym>Early Repolarization</nciodm:CDISCSynonym>
                    <nciodm:CDISCDefinition>An electrocardiographic finding of J point and ST segment elevation in the absence of other signs of acute ischemia or pericarditis.</nciodm:CDISCDefinition>
                    <nciodm:PreferredTerm>Early Repolarization</nciodm:PreferredTerm>
                </EnumeratedItem>
                <EnumeratedItem CodedValue="ECTOPIC ATRIAL RHYTHM" nciodm:ExtCodeID="C62245">
                    <nciodm:CDISCSynonym>Ectopic atrial rhythm</nciodm:CDISCSynonym>
                    <nciodm:CDISCDefinition>An electrocardiographic finding of a regular atrial rhythm with atrial rate of less than 101 beats per minute which does not originate in the sinus node, and which is characterized by P waves whose morphology differs from the P wave morphology during sinus rhythm.</nciodm:CDISCDefinition>
                    <nciodm:PreferredTerm>Ectopic Atrial Rhythm by ECG Finding</nciodm:PreferredTerm>
                </EnumeratedItem>
                <EnumeratedItem CodedValue="ECTOPIC VENTRICULAR RHYTHM" nciodm:ExtCodeID="C71042">
                    <nciodm:CDISCSynonym>Ectopic ventricular rhythm</nciodm:CDISCSynonym>
                    <nciodm:CDISCDefinition>An electrocardiographic finding of three or more consecutive complexes of ventricular origin. The QRS complexes are wide and have an abnormal morphology.</nciodm:CDISCDefinition>
                    <nciodm:PreferredTerm>Ectopic Ventricular Rhythm by ECG Finding</nciodm:PreferredTerm>
                </EnumeratedItem>
                <EnumeratedItem CodedValue="ELECTRICAL ALTERNANS" nciodm:ExtCodeID="C71035">
                    <nciodm:CDISCSynonym>Electrical alternans</nciodm:CDISCSynonym>
                    <nciodm:CDISCDefinition>An electrocardiographic finding in which there is an alternating pattern of any of the waveform components. (NCI)</nciodm:CDISCDefinition>
                    <nciodm:PreferredTerm>Electrical Alternans by ECG Finding</nciodm:PreferredTerm>
                </EnumeratedItem>
                <EnumeratedItem CodedValue="EXTENSIVE ANTERIOR WALL MYOCARDIAL INFARCTION" nciodm:ExtCodeID="C106520">
                    <nciodm:CDISCDefinition>An electrocardiographic finding of pathologic Q waves in leads V1 to V6, I and aVL, which is suggestive of myocardial infarction involving the anterior and anterolateral walls of the left ventricle.</nciodm:CDISCDefinition>
                    <nciodm:PreferredTerm>Extensive Anterior Wall Myocardial Infarction by ECG Finding</nciodm:PreferredTerm>
                </EnumeratedItem>
                <EnumeratedItem CodedValue="FUSION COMPLEX" nciodm:ExtCodeID="C102639">
                    <nciodm:CDISCSynonym>Fusion Complex</nciodm:CDISCSynonym>
                    <nciodm:CDISCSynonym>Fusion complex(es)</nciodm:CDISCSynonym>
                    <nciodm:CDISCDefinition>An electrocardiographic finding that occurs when electrical activation of the atria or ventricles occurs from two separate sites. This results in a P wave or QRS complex that displays merged characteristics of beats originating from the two different sites.</nciodm:CDISCDefinition>
                    <nciodm:PreferredTerm>Fusion Complex</nciodm:PreferredTerm>
                </EnumeratedItem>
                <EnumeratedItem CodedValue="HIGH LATERAL WALL MYOCARDIAL INFARCTION" nciodm:ExtCodeID="C102643">
                    <nciodm:CDISCSynonym>High Lateral Wall Myocardial Infarction</nciodm:CDISCSynonym>
                    <nciodm:CDISCDefinition>An electrocardiographic finding of pathologic Q waves in leads I and aVL, which is suggestive of myocardial infarction of the high lateral wall of the left ventricle.</nciodm:CDISCDefinition>
                    <nciodm:PreferredTerm>High Lateral Myocardial Infarction by ECG Finding</nciodm:PreferredTerm>
                </EnumeratedItem>
                <EnumeratedItem CodedValue="IDIOVENTRICULAR RHYTHM" nciodm:ExtCodeID="C50599">
                    <nciodm:CDISCSynonym>Idioventricular Rhythm</nciodm:CDISCSynonym>
                    <nciodm:CDISCDefinition>An electrocardiographic finding of three or more consecutive complexes of ventricular origin with a rate less than a certain threshold (100 or 120 beats per minute are commonly used). The QRS complexes are wide and have an abnormal morphology.</nciodm:CDISCDefinition>
                    <nciodm:PreferredTerm>Idioventricular Rhythm</nciodm:PreferredTerm>
                </EnumeratedItem>
                <EnumeratedItem CodedValue="INCOMPLETE LEFT BUNDLE BRANCH BLOCK" nciodm:ExtCodeID="C71047">
                    <nciodm:CDISCSynonym>Incomplete left bundle branch block</nciodm:CDISCSynonym>
                    <nciodm:CDISCDefinition>An electrocardiographic finding of a wide QRS complex with evidence of delayed conduction to the left ventricle, manifest as a widened initial portion of the QRS complex in leads V5, V6, I and aVL and with QRS duration less than 120 ms.</nciodm:CDISCDefinition>
                    <nciodm:PreferredTerm>Incomplete Left Bundle Branch Block by ECG Finding</nciodm:PreferredTerm>
                </EnumeratedItem>
                <EnumeratedItem CodedValue="INCOMPLETE RIGHT BUNDLE BRANCH BLOCK" nciodm:ExtCodeID="C71048">
                    <nciodm:CDISCSynonym>Incomplete right bundle branch block</nciodm:CDISCSynonym>
                    <nciodm:CDISCSynonym>Incomplete right bundle-branch block</nciodm:CDISCSynonym>
                    <nciodm:CDISCDefinition>An electrocardiographic finding of a wide QRS complex with evidence of delayed conduction to the right ventricle, manifest by a widened initial portion of the QRS in V1 and V2, a widened S wave in V5, V6, I and aVL, and with QRS duration less than 120 ms.</nciodm:CDISCDefinition>
                    <nciodm:PreferredTerm>Incomplete Right Bundle Branch Block by ECG Finding</nciodm:PreferredTerm>
                </EnumeratedItem>
                <EnumeratedItem CodedValue="INDETERMINATE QRS AXIS" nciodm:ExtCodeID="C102701">
                    <nciodm:CDISCSynonym>QRS Axis Indeterminate</nciodm:CDISCSynonym>
                    <nciodm:CDISCSynonym>Indeterminate Axis</nciodm:CDISCSynonym>
                    <nciodm:CDISCSynonym>Indeterminate QRS Axis</nciodm:CDISCSynonym>
                    <nciodm:CDISCDefinition>An electrocardiographic finding in which the frontal plane QRS axis cannot be calculated.</nciodm:CDISCDefinition>
                    <nciodm:PreferredTerm>QRS Axis Indeterminate</nciodm:PreferredTerm>
                </EnumeratedItem>
                <EnumeratedItem CodedValue="INFERIOR WALL MYOCARDIAL INFARCTION" nciodm:ExtCodeID="C35398">
                    <nciodm:CDISCSynonym>Inferior Wall Myocardial Infarction</nciodm:CDISCSynonym>
                    <nciodm:CDISCSynonym>Inferior MI</nciodm:CDISCSynonym>
                    <nciodm:CDISCDefinition>An electrocardiographic finding of pathologic Q waves in leads III, aVF and often II, which is suggestive of myocardial infarction of the inferior wall of the left ventricle.</nciodm:CDISCDefinition>
                    <nciodm:PreferredTerm>Inferior Myocardial Infarction by ECG Finding</nciodm:PreferredTerm>
                </EnumeratedItem>
                <EnumeratedItem CodedValue="INTRAATRIAL CONDUCTION DELAY" nciodm:ExtCodeID="C71073">
                    <nciodm:CDISCSynonym>Intraatrial Conduction Delay</nciodm:CDISCSynonym>
                    <nciodm:CDISCDefinition>An electrocardiographic finding of a delay in impulse propagation through the atria. This is characterized by broad P waves which are often biphasic in V1.</nciodm:CDISCDefinition>
                    <nciodm:PreferredTerm>Intra-Atrial Conduction Delay by ECG Finding</nciodm:PreferredTerm>
                </EnumeratedItem>
                <EnumeratedItem CodedValue="INTRAVENTRICULAR CONDUCTION DELAY, NONSPECIFIC" nciodm:ExtCodeID="C62271">
                    <nciodm:CDISCSynonym>Intraventricular conduction delay, nonspecific</nciodm:CDISCSynonym>
                    <nciodm:CDISCSynonym>Intraventricular conduction delay</nciodm:CDISCSynonym>
                    <nciodm:CDISCDefinition>An electrocardiographic finding of a widened QRS duration typically greater than 110 ms which does not meet the morphologic criteria for any of the standard bundle branch or fascicular block patterns.</nciodm:CDISCDefinition>
                    <nciodm:PreferredTerm>Nonspecific Intraventricular Conduction Delay by ECG Finding</nciodm:PreferredTerm>
                </EnumeratedItem>
                <EnumeratedItem CodedValue="ISORHYTHMIC DISSOCIATION" nciodm:ExtCodeID="C62248">
                    <nciodm:CDISCSynonym>Isorhythmic dissociation</nciodm:CDISCSynonym>
                    <nciodm:CDISCDefinition>An electrocardiographic finding of a type of atrioventricular dissociation characterized by the atria (P waves) and ventricles (QRS complexes) beating at similar rates, although independently.</nciodm:CDISCDefinition>
                    <nciodm:PreferredTerm>Isorhythmic Atrioventricular Dissociation</nciodm:PreferredTerm>
                </EnumeratedItem>
                <EnumeratedItem CodedValue="J POINT ELEVATION" nciodm:ExtCodeID="C71030">
                    <nciodm:CDISCSynonym>J point elevation</nciodm:CDISCSynonym>
                    <nciodm:CDISCDefinition>An electrocardiographic finding of a significant elevation above the baseline of the J point.</nciodm:CDISCDefinition>
                    <nciodm:PreferredTerm>J Point Elevation</nciodm:PreferredTerm>
                </EnumeratedItem>
                <EnumeratedItem CodedValue="JUNCTIONAL BRADYCARDIA" nciodm:ExtCodeID="C71074">
                    <nciodm:CDISCSynonym>Junctional bradycardia</nciodm:CDISCSynonym>
                    <nciodm:CDISCDefinition>An electrocardiographic finding of a junctional rhythm with a heat rate which is abnormally low.</nciodm:CDISCDefinition>
                    <nciodm:PreferredTerm>Junctional Bradycardia by ECG Finding</nciodm:PreferredTerm>
                </EnumeratedItem>
                <EnumeratedItem CodedValue="JUNCTIONAL PREMATURE COMPLEX" nciodm:ExtCodeID="C102652">
                    <nciodm:CDISCSynonym>Junctional Premature Complex</nciodm:CDISCSynonym>
                    <nciodm:CDISCSynonym>Junctional Extra Beat</nciodm:CDISCSynonym>
                    <nciodm:CDISCSynonym>Junctional premature complex(es)</nciodm:CDISCSynonym>
                    <nciodm:CDISCDefinition>An electrocardiographic finding of an ectopic impulse originating in the AV junction presenting as a QRS complex of supraventricular origin which is not preceded by a P wave.</nciodm:CDISCDefinition>
                    <nciodm:PreferredTerm>Junctional Premature Complex by ECG Finding</nciodm:PreferredTerm>
                </EnumeratedItem>
                <EnumeratedItem CodedValue="JUNCTIONAL RHYTHM" nciodm:ExtCodeID="C71051">
                    <nciodm:CDISCSynonym>Junctional rhythm</nciodm:CDISCSynonym>
                    <nciodm:CDISCDefinition>An electrocardiographic finding of a rhythm which originates in the AV junction and results in a normal heart rate. It is characterized by retrograde P waves which may be obscured by or may follow the QRS complexes. The QRS complexes may be narrow or may demonstrate aberration.</nciodm:CDISCDefinition>
                    <nciodm:PreferredTerm>Junctional Rhythm by ECG Finding</nciodm:PreferredTerm>
                </EnumeratedItem>
                <EnumeratedItem CodedValue="JUNCTIONAL TACHYCARDIA" nciodm:ExtCodeID="C35059">
                    <nciodm:CDISCSynonym>Junctional tachycardia</nciodm:CDISCSynonym>
                    <nciodm:CDISCDefinition>An electrocardiographic finding of a junctional rhythm with a heart rate which is abnormally elevated.</nciodm:CDISCDefinition>
                    <nciodm:PreferredTerm>Junctional Tachycardia by ECG Finding</nciodm:PreferredTerm>
                </EnumeratedItem>
                <EnumeratedItem CodedValue="LATE R WAVE TRANSITION" nciodm:ExtCodeID="C102653">
                    <nciodm:CDISCSynonym>Late R Wave Transition</nciodm:CDISCSynonym>
                    <nciodm:CDISCDefinition>An electrocardiographic finding where the amplitude of the R wave does not become greater than the amplitude of the S wave until an unusually late point in the precordial leads, usually in leads V4 to V6.</nciodm:CDISCDefinition>
                    <nciodm:PreferredTerm>Late R Wave Transition by ECG Finding</nciodm:PreferredTerm>
                </EnumeratedItem>
                <EnumeratedItem CodedValue="LATERAL WALL MYOCARDIAL INFARCTION" nciodm:ExtCodeID="C35586">
                    <nciodm:CDISCSynonym>Lateral Wall Myocardial Infarction</nciodm:CDISCSynonym>
                    <nciodm:CDISCSynonym>Lateral MI</nciodm:CDISCSynonym>
                    <nciodm:CDISCDefinition>An electrocardiographic finding of pathologic Q waves in leads V5, V6, I and aVL, which is suggestive of myocardial infarction of the lateral wall of the left ventricle.</nciodm:CDISCDefinition>
                    <nciodm:PreferredTerm>Lateral Myocardial Infarction by ECG Finding</nciodm:PreferredTerm>
                </EnumeratedItem>
                <EnumeratedItem CodedValue="LEFT ANTERIOR FASCICULAR BLOCK" nciodm:ExtCodeID="C62267">
                    <nciodm:CDISCSynonym>Left anterior fascicular block</nciodm:CDISCSynonym>
                    <nciodm:CDISCSynonym>Left Anterior Hemiblock</nciodm:CDISCSynonym>
                    <nciodm:CDISCDefinition>An electrocardiographic finding of a slightly widened QRS duration (typically less than 120 ms) with leftward frontal plane QRS axis and typically small Q waves in leads I and aVL.</nciodm:CDISCDefinition>
                    <nciodm:PreferredTerm>Left Anterior Fascicular Block by ECG Finding</nciodm:PreferredTerm>
                </EnumeratedItem>
                <EnumeratedItem CodedValue="LEFT ATRIAL ABNORMALITY" nciodm:ExtCodeID="C71040">
                    <nciodm:CDISCSynonym>P-mitrale</nciodm:CDISCSynonym>
                    <nciodm:CDISCSynonym>Left Atrial Enlargement</nciodm:CDISCSynonym>
                    <nciodm:CDISCDefinition>An electrocardiographic finding suggesting underlying hypertrophy or dilatation of the left atrium. Electrocardiographic criteria used for the diagnosis of left atrial abnormality may include a bifid p wave, a biphasic p wave and/or a p wave duration of greater than 0.12 seconds. (NCI)</nciodm:CDISCDefinition>
                    <nciodm:PreferredTerm>P-mitrale by ECG Finding</nciodm:PreferredTerm>
                </EnumeratedItem>
                <EnumeratedItem CodedValue="LEFT BUNDLE BRANCH BLOCK" nciodm:ExtCodeID="C62269">
                    <nciodm:CDISCSynonym>Left bundle branch block</nciodm:CDISCSynonym>
                    <nciodm:CDISCSynonym>Complete LBBB</nciodm:CDISCSynonym>
                    <nciodm:CDISCSynonym>Left bundle-branch block</nciodm:CDISCSynonym>
                    <nciodm:CDISCDefinition>An electrocardiographic finding of a wide QRS complex with evidence of delayed conduction to the left ventricle, manifest as a widened initial portion of the QRS complex in leads V5, V6, I and aVL and with QRS duration greater than or equal to 120 ms.</nciodm:CDISCDefinition>
                    <nciodm:PreferredTerm>Left Bundle Branch Block by ECG Finding</nciodm:PreferredTerm>
                </EnumeratedItem>
                <EnumeratedItem CodedValue="LEFT POSTERIOR FASCICULAR BLOCK" nciodm:ExtCodeID="C62268">
                    <nciodm:CDISCSynonym>Left posterior fascicular block</nciodm:CDISCSynonym>
                    <nciodm:CDISCSynonym>Left Posterior Hemiblock</nciodm:CDISCSynonym>
                    <nciodm:CDISCDefinition>An electrocardiographic finding of an S1Q3 pattern and QRS axis greater than or equal to 120 degrees. It is usually seen in association with other abnormalities (e.g. RBBB or RVH).</nciodm:CDISCDefinition>
                    <nciodm:PreferredTerm>Left Posterior Fascicular Block by ECG Finding</nciodm:PreferredTerm>
                </EnumeratedItem>
                <EnumeratedItem CodedValue="LEFT VENTRICULAR CONDUCTION DELAY" nciodm:ExtCodeID="C92231">
                    <nciodm:CDISCSynonym>Left Ventricular Conduction Delay</nciodm:CDISCSynonym>
                    <nciodm:CDISCDefinition>An electrocardiographic finding in which there is evidence that electrical transmission through the left ventricle is impaired.</nciodm:CDISCDefinition>
                    <nciodm:PreferredTerm>Left Ventricular Conduction Delay by ECG Finding</nciodm:PreferredTerm>
                </EnumeratedItem>
                <EnumeratedItem CodedValue="LEFT VENTRICULAR HYPERTROPHY" nciodm:ExtCodeID="C71076">
                    <nciodm:CDISCSynonym>Left Ventricular Hypertrophy</nciodm:CDISCSynonym>
