<?xml version="1.0" encoding="UTF-8"?>
<?xml-stylesheet type="text/xsl" href="define-v1-updated-html.xsl"?>
<!--Produced from SAS data using the SAS Clinical Standards Toolkit-->
<ODM xmlns:xlink="http://www.w3.org/1999/xlink" xmlns:def="http://www.cdisc.org/ns/def/v1.0" xmlns="http://www.cdisc.org/ns/odm/v1.2" FileOID="define1" CreationDateTime="2022-05-31T16:46:29-04:00" FileType="Snapshot" ODMVersion="1.2.1">
    <Study OID="define1">
        <GlobalVariables>
            <StudyName>study1</StudyName>
            <StudyDescription>first study</StudyDescription>
            <ProtocolName>Protocol ABC</ProtocolName>
        </GlobalVariables>
        <MetaDataVersion OID="MDV.1" Name="CDISC-SDTM 3.1.3" Description="CDISC-SDTM 3.1.3" def:DefineVersion="1.0.0" def:StandardName="CDISC SDTM" def:StandardVersion="3.1.3">
            <def:AnnotatedCRF>
                <def:DocumentRef leafID="lf.blankcrf"/>
            </def:AnnotatedCRF>
            <def:SupplementalDoc>
                <def:DocumentRef leafID="lf.supplementaldoc"/>
                <def:DocumentRef leafID="lf.supplementaldoc2"/>
            </def:SupplementalDoc>
            <def:leaf ID="lf.blankcrf" xlink:href="blankcrf.pdf">
                <def:title>Annotated Case Report Form</def:title>
            </def:leaf>
            <def:leaf ID="lf.supplementaldoc" xlink:href="reviewersguide.pdf">
                <def:title>Reviewers Guide</def:title>
            </def:leaf>
            <def:leaf ID="lf.supplementaldoc2" xlink:href="reviewersguide2.pdf">
                <def:title>Reviewers Guide 2</def:title>
            </def:leaf>
            <def:ComputationMethod OID="CM.EG.EGTESTCD.QTCB">QTcB = QT interval / square root of (60 / heart rate)</def:ComputationMethod>
            <def:ComputationMethod OID="CM.EG.EGTESTCD.QTCF">QTcF = QT interval / cubic root of (60 / heart rate)</def:ComputationMethod>
            <def:ValueListDef OID="VL.EG.EGTESTCD">
                <ItemRef ItemOID="IT.EG.EGTESTCD.PRI" OrderNumber="1" Mandatory="No"/>
                <ItemRef ItemOID="IT.EG.EGTESTCD.QRSI" OrderNumber="2" Mandatory="No"/>
                <ItemRef ItemOID="IT.EG.EGTESTCD.QTCB" OrderNumber="4" Mandatory="No"/>
                <ItemRef ItemOID="IT.EG.EGTESTCD.QTCF" OrderNumber="5" Mandatory="No"/>
                <ItemRef ItemOID="IT.EG.EGTESTCD.QTI" OrderNumber="3" Mandatory="No"/>
            </def:ValueListDef>
            <def:ValueListDef OID="VL.IE.IETESTCD">
                <ItemRef ItemOID="IT.IE.IETESTCD.INCL02" OrderNumber="1" Mandatory="No"/>
                <ItemRef ItemOID="IT.IE.IETESTCD.INCL10" OrderNumber="2" Mandatory="No"/>
            </def:ValueListDef>
            <def:ValueListDef OID="VL.LB.LBTESTCD">
                <ItemRef ItemOID="IT.LB.LBTESTCD.CALCIUM" OrderNumber="1" Mandatory="No"/>
                <ItemRef ItemOID="IT.LB.LBTESTCD.CHLORIDE" OrderNumber="2" Mandatory="No"/>
                <ItemRef ItemOID="IT.LB.LBTESTCD.POTASS" OrderNumber="3" Mandatory="No"/>
                <ItemRef ItemOID="IT.LB.LBTESTCD.SODIUM" OrderNumber="4" Mandatory="No"/>
            </def:ValueListDef>
            <def:ValueListDef OID="VL.PE.PETESTCD">
                <ItemRef ItemOID="IT.PE.PETESTCD.CARDIO" OrderNumber="1" Mandatory="No"/>
                <ItemRef ItemOID="IT.PE.PETESTCD.ENT" OrderNumber="2" Mandatory="No"/>
                <ItemRef ItemOID="IT.PE.PETESTCD.RESP" OrderNumber="3" Mandatory="No"/>
                <ItemRef ItemOID="IT.PE.PETESTCD.SKIN" OrderNumber="4" Mandatory="No"/>
            </def:ValueListDef>
            <def:ValueListDef OID="VL.SC.SCTESTCD">
                <ItemRef ItemOID="IT.SC.SCTESTCD.INITIALS" OrderNumber="1" Mandatory="No"/>
                <ItemRef ItemOID="IT.SC.SCTESTCD.RACEOTH" OrderNumber="2" Mandatory="No"/>
            </def:ValueListDef>
            <def:ValueListDef OID="VL.SUPPAE.QNAM">
                <ItemRef ItemOID="IT.SUPPAE.QNAM.AECONIA" OrderNumber="1" Mandatory="No"/>
                <ItemRef ItemOID="IT.SUPPAE.QNAM.AETRTEM" OrderNumber="2" Mandatory="No"/>
            </def:ValueListDef>
            <def:ValueListDef OID="VL.TI.IETESTCD">
                <ItemRef ItemOID="IT.TI.IETESTCD.EXCL01" OrderNumber="4" Mandatory="No"/>
                <ItemRef ItemOID="IT.TI.IETESTCD.EXCL02" OrderNumber="3" Mandatory="No"/>
                <ItemRef ItemOID="IT.TI.IETESTCD.INCL01" OrderNumber="2" Mandatory="No"/>
                <ItemRef ItemOID="IT.TI.IETESTCD.INCL02" OrderNumber="1" Mandatory="No"/>
            </def:ValueListDef>
            <def:ValueListDef OID="VL.VS.VSTESTCD">
                <ItemRef ItemOID="IT.VS.VSTESTCD.DIABP" OrderNumber="1" Mandatory="No"/>
                <ItemRef ItemOID="IT.VS.VSTESTCD.FRMSIZE" OrderNumber="2" Mandatory="No"/>
                <ItemRef ItemOID="IT.VS.VSTESTCD.HRATE" OrderNumber="3" Mandatory="No"/>
                <ItemRef ItemOID="IT.VS.VSTESTCD.PULBP" OrderNumber="4" Mandatory="No"/>
                <ItemRef ItemOID="IT.VS.VSTESTCD.SYSBP" OrderNumber="5" Mandatory="No"/>
            </def:ValueListDef>
            <ItemGroupDef OID="IG.AE" Name="AE" Repeating="Yes" IsReferenceData="No" SASDatasetName="AE" Domain="AE" Purpose="Tabulation" def:Label="Adverse Events" def:Class="Events" def:Structure="One record per adverse event per subject" def:DomainKeys="STUDYID, USUBJID, AEDECOD, AESTDTC" def:ArchiveLocationID="Location.AE">
                <ItemRef ItemOID="IT.AE.STUDYID" Mandatory="Yes" OrderNumber="1" KeySequence="1" Role="Identifier"/>
                <ItemRef ItemOID="IT.AE.DOMAIN" Mandatory="Yes" OrderNumber="2" Role="Identifier"/>
                <ItemRef ItemOID="IT.AE.USUBJID" Mandatory="Yes" OrderNumber="3" KeySequence="2" Role="Identifier"/>
                <ItemRef ItemOID="IT.AE.AESEQ" Mandatory="Yes" OrderNumber="4" Role="Identifier"/>
                <ItemRef ItemOID="IT.AE.AEGRPID" Mandatory="No" OrderNumber="5" Role="Identifier"/>
                <ItemRef ItemOID="IT.AE.AEREFID" Mandatory="No" OrderNumber="6" Role="Identifier"/>
                <ItemRef ItemOID="IT.AE.AESPID" Mandatory="No" OrderNumber="7" Role="Identifier"/>
                <ItemRef ItemOID="IT.AE.AETERM" Mandatory="Yes" OrderNumber="8" Role="Topic"/>
                <ItemRef ItemOID="IT.AE.AEMODIFY" Mandatory="No" OrderNumber="9" Role="SynonymQualifier"/>
                <ItemRef ItemOID="IT.AE.AELLT" Mandatory="No" OrderNumber="10" Role="VariableQualifier"/>
                <ItemRef ItemOID="IT.AE.AELLTCD" Mandatory="No" OrderNumber="11" Role="VariableQualifier"/>
                <ItemRef ItemOID="IT.AE.AEDECOD" Mandatory="Yes" OrderNumber="12" KeySequence="3" Role="SynonymQualifier"/>
                <ItemRef ItemOID="IT.AE.AEPTCD" Mandatory="No" OrderNumber="13" Role="VariableQualifier"/>
                <ItemRef ItemOID="IT.AE.AEHLT" Mandatory="No" OrderNumber="14" Role="VariableQualifier"/>
                <ItemRef ItemOID="IT.AE.AEHLTCD" Mandatory="No" OrderNumber="15" Role="VariableQualifier"/>
                <ItemRef ItemOID="IT.AE.AEHLGT" Mandatory="No" OrderNumber="16" Role="VariableQualifier"/>
                <ItemRef ItemOID="IT.AE.AEHLGTCD" Mandatory="No" OrderNumber="17" Role="VariableQualifier"/>
                <ItemRef ItemOID="IT.AE.AECAT" Mandatory="No" OrderNumber="18" Role="GroupingQualifier"/>
                <ItemRef ItemOID="IT.AE.AESCAT" Mandatory="No" OrderNumber="19" Role="GroupingQualifier"/>
                <ItemRef ItemOID="IT.AE.AEPRESP" Mandatory="No" OrderNumber="20" Role="RecordQualifier"/>
                <ItemRef ItemOID="IT.AE.AEBODSYS" Mandatory="No" OrderNumber="21" Role="RecordQualifier"/>
                <ItemRef ItemOID="IT.AE.AEBDSYCD" Mandatory="No" OrderNumber="22" Role="VariableQualifier"/>
                <ItemRef ItemOID="IT.AE.AESOC" Mandatory="No" OrderNumber="23" Role="VariableQualifier"/>
                <ItemRef ItemOID="IT.AE.AESOCCD" Mandatory="No" OrderNumber="24" Role="VariableQualifier"/>
                <ItemRef ItemOID="IT.AE.AELOC" Mandatory="No" OrderNumber="25" Role="RecordQualifier"/>
                <ItemRef ItemOID="IT.AE.AESEV" Mandatory="No" OrderNumber="26" Role="RecordQualifier"/>
                <ItemRef ItemOID="IT.AE.AESER" Mandatory="No" OrderNumber="27" Role="RecordQualifier"/>
                <ItemRef ItemOID="IT.AE.AEACN" Mandatory="No" OrderNumber="28" Role="RecordQualifier"/>
                <ItemRef ItemOID="IT.AE.AEACNOTH" Mandatory="No" OrderNumber="29" Role="RecordQualifier"/>
                <ItemRef ItemOID="IT.AE.AEREL" Mandatory="No" OrderNumber="30" Role="RecordQualifier"/>
                <ItemRef ItemOID="IT.AE.AERELNST" Mandatory="No" OrderNumber="31" Role="RecordQualifier"/>
                <ItemRef ItemOID="IT.AE.AEPATT" Mandatory="No" OrderNumber="32" Role="RecordQualifier"/>
                <ItemRef ItemOID="IT.AE.AEOUT" Mandatory="No" OrderNumber="33" Role="RecordQualifier"/>
                <ItemRef ItemOID="IT.AE.AESCAN" Mandatory="No" OrderNumber="34" Role="RecordQualifier"/>
                <ItemRef ItemOID="IT.AE.AESCONG" Mandatory="No" OrderNumber="35" Role="RecordQualifier"/>
                <ItemRef ItemOID="IT.AE.AESDISAB" Mandatory="No" OrderNumber="36" Role="RecordQualifier"/>
                <ItemRef ItemOID="IT.AE.AESDTH" Mandatory="No" OrderNumber="37" Role="RecordQualifier"/>
                <ItemRef ItemOID="IT.AE.AESHOSP" Mandatory="No" OrderNumber="38" Role="RecordQualifier"/>
                <ItemRef ItemOID="IT.AE.AESLIFE" Mandatory="No" OrderNumber="39" Role="RecordQualifier"/>
                <ItemRef ItemOID="IT.AE.AESOD" Mandatory="No" OrderNumber="40" Role="RecordQualifier"/>
                <ItemRef ItemOID="IT.AE.AESMIE" Mandatory="No" OrderNumber="41" Role="RecordQualifier"/>
                <ItemRef ItemOID="IT.AE.AECONTRT" Mandatory="No" OrderNumber="42" Role="RecordQualifier"/>
                <ItemRef ItemOID="IT.AE.AETOXGR" Mandatory="No" OrderNumber="43" Role="RecordQualifier"/>
                <ItemRef ItemOID="IT.AE.AESTDTC" Mandatory="No" OrderNumber="44" KeySequence="4" Role="Timing"/>
                <ItemRef ItemOID="IT.AE.AEENDTC" Mandatory="No" OrderNumber="45" Role="Timing"/>
                <ItemRef ItemOID="IT.AE.AESTDY" Mandatory="No" OrderNumber="46" Role="Timing"/>
                <ItemRef ItemOID="IT.AE.AEENDY" Mandatory="No" OrderNumber="47" Role="Timing"/>
                <ItemRef ItemOID="IT.AE.AEDUR" Mandatory="No" OrderNumber="48" Role="Timing"/>
                <ItemRef ItemOID="IT.AE.AEENRF" Mandatory="No" OrderNumber="49" Role="Timing"/>
                <ItemRef ItemOID="IT.AE.AEENRTPT" Mandatory="No" OrderNumber="50" Role="Timing"/>
                <ItemRef ItemOID="IT.AE.AEENTPT" Mandatory="No" OrderNumber="51" Role="Timing"/>
                <def:leaf ID="Location.AE" xlink:href="../transport/ae.xpt">
                    <def:title>Adverse Events SAS transport file</def:title>
                </def:leaf>
            </ItemGroupDef>
            <ItemGroupDef OID="IG.CE" Name="CE" Repeating="Yes" IsReferenceData="No" SASDatasetName="CE" Domain="CE" Purpose="Tabulation" def:Label="Clinical Events" def:Class="Events" def:Structure="One record per event per subject" def:DomainKeys="STUDYID, USUBJID, CETERM, CESTDTC" def:ArchiveLocationID="Location.CE">
                <ItemRef ItemOID="IT.CE.STUDYID" Mandatory="Yes" OrderNumber="1" KeySequence="1" Role="Identifier"/>
                <ItemRef ItemOID="IT.CE.DOMAIN" Mandatory="Yes" OrderNumber="2" Role="Identifier"/>
                <ItemRef ItemOID="IT.CE.USUBJID" Mandatory="Yes" OrderNumber="3" KeySequence="2" Role="Identifier"/>
                <ItemRef ItemOID="IT.CE.CESEQ" Mandatory="Yes" OrderNumber="4" Role="Identifier"/>
                <ItemRef ItemOID="IT.CE.CETERM" Mandatory="Yes" OrderNumber="5" KeySequence="3" Role="Topic"/>
                <ItemRef ItemOID="IT.CE.CEPRESP" Mandatory="No" OrderNumber="6" Role="RecordQualifier"/>
                <ItemRef ItemOID="IT.CE.CEOCCUR" Mandatory="No" OrderNumber="7" Role="RecordQualifier"/>
                <ItemRef ItemOID="IT.CE.CESTAT" Mandatory="No" OrderNumber="8" Role="RecordQualifier"/>
                <ItemRef ItemOID="IT.CE.CESEV" Mandatory="No" OrderNumber="9" Role="RecordQualifier"/>
                <ItemRef ItemOID="IT.CE.CESTDTC" Mandatory="No" OrderNumber="10" KeySequence="4" Role="Timing"/>
                <ItemRef ItemOID="IT.CE.CEENDTC" Mandatory="No" OrderNumber="11" Role="Timing"/>
                <def:leaf ID="Location.CE" xlink:href="../transport/ce.xpt">
                    <def:title>Clinical Events SAS transport file</def:title>
                </def:leaf>
            </ItemGroupDef>
            <ItemGroupDef OID="IG.CM" Name="CM" Repeating="Yes" IsReferenceData="No" SASDatasetName="CM" Domain="CM" Purpose="Tabulation" def:Label="Concomitant Medications" def:Class="Interventions" def:Structure="One record per recorded medication occurrence or constant-dosing interval per subject" def:DomainKeys="STUDYID, USUBJID, CMTRT, CMSTDTC" def:ArchiveLocationID="Location.CM">
                <ItemRef ItemOID="IT.CM.STUDYID" Mandatory="Yes" OrderNumber="1" KeySequence="1" Role="Identifier"/>
                <ItemRef ItemOID="IT.CM.DOMAIN" Mandatory="Yes" OrderNumber="2" Role="Identifier"/>
                <ItemRef ItemOID="IT.CM.USUBJID" Mandatory="Yes" OrderNumber="3" KeySequence="2" Role="Identifier"/>
                <ItemRef ItemOID="IT.CM.CMSEQ" Mandatory="Yes" OrderNumber="4" Role="Identifier"/>
                <ItemRef ItemOID="IT.CM.CMGRPID" Mandatory="No" OrderNumber="5" Role="Identifier"/>
                <ItemRef ItemOID="IT.CM.CMSPID" Mandatory="No" OrderNumber="6" Role="Identifier"/>
                <ItemRef ItemOID="IT.CM.CMTRT" Mandatory="Yes" OrderNumber="7" KeySequence="3" Role="Topic"/>
                <ItemRef ItemOID="IT.CM.CMMODIFY" Mandatory="No" OrderNumber="8" Role="SynonymQualifier"/>
                <ItemRef ItemOID="IT.CM.CMDECOD" Mandatory="No" OrderNumber="9" Role="SynonymQualifier"/>
                <ItemRef ItemOID="IT.CM.CMCAT" Mandatory="No" OrderNumber="10" Role="GroupingQualifier"/>
                <ItemRef ItemOID="IT.CM.CMSCAT" Mandatory="No" OrderNumber="11" Role="GroupingQualifier"/>
                <ItemRef ItemOID="IT.CM.CMPRESP" Mandatory="No" OrderNumber="12" Role="RecordQualifier"/>
                <ItemRef ItemOID="IT.CM.CMOCCUR" Mandatory="No" OrderNumber="13" Role="RecordQualifier"/>
                <ItemRef ItemOID="IT.CM.CMSTAT" Mandatory="No" OrderNumber="14" Role="RecordQualifier"/>
                <ItemRef ItemOID="IT.CM.CMREASND" Mandatory="No" OrderNumber="15" Role="RecordQualifier"/>
                <ItemRef ItemOID="IT.CM.CMINDC" Mandatory="No" OrderNumber="16" Role="RecordQualifier"/>
                <ItemRef ItemOID="IT.CM.CMCLAS" Mandatory="No" OrderNumber="17" Role="VariableQualifier"/>
                <ItemRef ItemOID="IT.CM.CMCLASCD" Mandatory="No" OrderNumber="18" Role="VariableQualifier"/>
                <ItemRef ItemOID="IT.CM.CMDOSE" Mandatory="No" OrderNumber="19" Role="RecordQualifier"/>
                <ItemRef ItemOID="IT.CM.CMDOSTXT" Mandatory="No" OrderNumber="20" Role="RecordQualifier"/>
                <ItemRef ItemOID="IT.CM.CMDOSU" Mandatory="No" OrderNumber="21" Role="VariableQualifier"/>
                <ItemRef ItemOID="IT.CM.CMDOSFRM" Mandatory="No" OrderNumber="22" Role="VariableQualifier"/>
                <ItemRef ItemOID="IT.CM.CMDOSFRQ" Mandatory="No" OrderNumber="23" Role="VariableQualifier"/>
                <ItemRef ItemOID="IT.CM.CMDOSTOT" Mandatory="No" OrderNumber="24" Role="RecordQualifier"/>
                <ItemRef ItemOID="IT.CM.CMDOSRGM" Mandatory="No" OrderNumber="25" Role="VariableQualifier"/>
                <ItemRef ItemOID="IT.CM.CMROUTE" Mandatory="No" OrderNumber="26" Role="VariableQualifier"/>
                <ItemRef ItemOID="IT.CM.CMSTDTC" Mandatory="No" OrderNumber="27" KeySequence="4" Role="Timing"/>
                <ItemRef ItemOID="IT.CM.CMENDTC" Mandatory="No" OrderNumber="28" Role="Timing"/>
                <ItemRef ItemOID="IT.CM.CMSTDY" Mandatory="No" OrderNumber="29" Role="Timing"/>
                <ItemRef ItemOID="IT.CM.CMENDY" Mandatory="No" OrderNumber="30" Role="Timing"/>
                <ItemRef ItemOID="IT.CM.CMDUR" Mandatory="No" OrderNumber="31" Role="Timing"/>
                <ItemRef ItemOID="IT.CM.CMSTRF" Mandatory="No" OrderNumber="32" Role="Timing"/>
                <ItemRef ItemOID="IT.CM.CMENRF" Mandatory="No" OrderNumber="33" Role="Timing"/>
                <ItemRef ItemOID="IT.CM.CMSTRTPT" Mandatory="No" OrderNumber="34" Role="Timing"/>
                <ItemRef ItemOID="IT.CM.CMSTTPT" Mandatory="No" OrderNumber="35" Role="Timing"/>
                <ItemRef ItemOID="IT.CM.CMENRTPT" Mandatory="No" OrderNumber="36" Role="Timing"/>
                <ItemRef ItemOID="IT.CM.CMENTPT" Mandatory="No" OrderNumber="37" Role="Timing"/>
                <def:leaf ID="Location.CM" xlink:href="../transport/cm.xpt">
                    <def:title>Concomitant Medications SAS transport file</def:title>
                </def:leaf>
            </ItemGroupDef>
            <ItemGroupDef OID="IG.CO" Name="CO" Repeating="Yes" IsReferenceData="No" SASDatasetName="CO" Domain="CO" Purpose="Tabulation" def:Label="Comments" def:Class="Special Purpose Domains" def:Structure="One record per comment per subject" def:DomainKeys="STUDYID, USUBJID, COSEQ" def:ArchiveLocationID="Location.CO">
                <ItemRef ItemOID="IT.CO.STUDYID" Mandatory="Yes" OrderNumber="1" KeySequence="1" Role="Identifier"/>
                <ItemRef ItemOID="IT.CO.DOMAIN" Mandatory="Yes" OrderNumber="2" Role="Identifier"/>
                <ItemRef ItemOID="IT.CO.RDOMAIN" Mandatory="No" OrderNumber="3" Role="RecordQualifier"/>
                <ItemRef ItemOID="IT.CO.USUBJID" Mandatory="Yes" OrderNumber="4" KeySequence="2" Role="Identifier"/>
                <ItemRef ItemOID="IT.CO.COSEQ" Mandatory="Yes" OrderNumber="5" KeySequence="3" Role="Identifier"/>
                <ItemRef ItemOID="IT.CO.IDVAR" Mandatory="No" OrderNumber="6" Role="RecordQualifier"/>
                <ItemRef ItemOID="IT.CO.IDVARVAL" Mandatory="No" OrderNumber="7" Role="RecordQualifier"/>
                <ItemRef ItemOID="IT.CO.COREF" Mandatory="No" OrderNumber="8" Role="RecordQualifier"/>
                <ItemRef ItemOID="IT.CO.COVAL" Mandatory="Yes" OrderNumber="9" Role="Topic"/>
                <ItemRef ItemOID="IT.CO.COEVAL" Mandatory="No" OrderNumber="10" Role="RecordQualifier"/>
                <ItemRef ItemOID="IT.CO.CODTC" Mandatory="No" OrderNumber="11" Role="Timing"/>
                <def:leaf ID="Location.CO" xlink:href="../transport/co.xpt">
                    <def:title>Comments SAS transport file</def:title>
                </def:leaf>
            </ItemGroupDef>
            <ItemGroupDef OID="IG.DA" Name="DA" Repeating="Yes" IsReferenceData="No" SASDatasetName="DA" Domain="DA" Purpose="Tabulation" def:Label="Drug Accountability" def:Class="Findings" def:Structure="One record per drug accountability finding per subject" def:DomainKeys="STUDYID, USUBJID, DATESTCD, DADTC" def:ArchiveLocationID="Location.DA">
                <ItemRef ItemOID="IT.DA.STUDYID" Mandatory="Yes" OrderNumber="1" KeySequence="1" Role="Identifier"/>
                <ItemRef ItemOID="IT.DA.DOMAIN" Mandatory="Yes" OrderNumber="2" Role="Identifier"/>
                <ItemRef ItemOID="IT.DA.USUBJID" Mandatory="Yes" OrderNumber="3" KeySequence="2" Role="Identifier"/>
                <ItemRef ItemOID="IT.DA.DASEQ" Mandatory="Yes" OrderNumber="4" Role="Identifier"/>
                <ItemRef ItemOID="IT.DA.DASPID" Mandatory="No" OrderNumber="5" Role="Identifier"/>
                <ItemRef ItemOID="IT.DA.DATESTCD" Mandatory="Yes" OrderNumber="6" KeySequence="3" Role="Topic"/>
                <ItemRef ItemOID="IT.DA.DATEST" Mandatory="Yes" OrderNumber="7" Role="SynonymQualifier"/>
                <ItemRef ItemOID="IT.DA.DACAT" Mandatory="No" OrderNumber="8" Role="GroupingQualifier"/>
                <ItemRef ItemOID="IT.DA.DASCAT" Mandatory="No" OrderNumber="9" Role="GroupingQualifier"/>
                <ItemRef ItemOID="IT.DA.DAORRES" Mandatory="No" OrderNumber="10" Role="ResultQualifier"/>
                <ItemRef ItemOID="IT.DA.DAORRESU" Mandatory="No" OrderNumber="11" Role="VariableQualifier"/>
                <ItemRef ItemOID="IT.DA.DASTRESC" Mandatory="No" OrderNumber="12" Role="ResultQualifier"/>
                <ItemRef ItemOID="IT.DA.DASTRESN" Mandatory="No" OrderNumber="13" Role="ResultQualifier"/>
                <ItemRef ItemOID="IT.DA.DASTRESU" Mandatory="No" OrderNumber="14" Role="VariableQualifier"/>
                <ItemRef ItemOID="IT.DA.VISITNUM" Mandatory="No" OrderNumber="15" Role="Timing"/>
                <ItemRef ItemOID="IT.DA.DADTC" Mandatory="No" OrderNumber="16" KeySequence="4" Role="Timing"/>
                <def:leaf ID="Location.DA" xlink:href="../transport/da.xpt">
                    <def:title>Drug Accountability SAS transport file</def:title>
                </def:leaf>
            </ItemGroupDef>
            <ItemGroupDef OID="IG.DM" Name="DM" Repeating="No" IsReferenceData="No" SASDatasetName="DM" Domain="DM" Purpose="Tabulation" def:Label="Demographics" def:Class="Special Purpose Domains" def:Structure="One record per subject" def:DomainKeys="STUDYID, USUBJID" def:ArchiveLocationID="Location.DM">
                <ItemRef ItemOID="IT.DM.STUDYID" Mandatory="Yes" OrderNumber="1" KeySequence="1" Role="Identifier"/>
                <ItemRef ItemOID="IT.DM.DOMAIN" Mandatory="Yes" OrderNumber="2" Role="Identifier"/>
                <ItemRef ItemOID="IT.DM.USUBJID" Mandatory="Yes" OrderNumber="3" KeySequence="2" Role="Identifier"/>
                <ItemRef ItemOID="IT.DM.SUBJID" Mandatory="Yes" OrderNumber="4" Role="Topic"/>
                <ItemRef ItemOID="IT.DM.RFSTDTC" Mandatory="No" OrderNumber="5" Role="RecordQualifier"/>
                <ItemRef ItemOID="IT.DM.RFENDTC" Mandatory="No" OrderNumber="6" Role="RecordQualifier"/>
                <ItemRef ItemOID="IT.DM.RFXSTDTC" Mandatory="No" OrderNumber="7" Role="RecordQualifier"/>
                <ItemRef ItemOID="IT.DM.RFXENDTC" Mandatory="No" OrderNumber="8" Role="RecordQualifier"/>
                <ItemRef ItemOID="IT.DM.RFICDTC" Mandatory="No" OrderNumber="9" Role="RecordQualifier"/>
                <ItemRef ItemOID="IT.DM.RFPENDTC" Mandatory="No" OrderNumber="10" Role="RecordQualifier"/>
                <ItemRef ItemOID="IT.DM.DTHDTC" Mandatory="No" OrderNumber="11" Role="RecordQualifier"/>
                <ItemRef ItemOID="IT.DM.DTHFL" Mandatory="No" OrderNumber="12" Role="RecordQualifier"/>
                <ItemRef ItemOID="IT.DM.SITEID" Mandatory="Yes" OrderNumber="13" Role="RecordQualifier"/>
                <ItemRef ItemOID="IT.DM.INVID" Mandatory="No" OrderNumber="14" Role="RecordQualifier"/>
                <ItemRef ItemOID="IT.DM.INVNAM" Mandatory="No" OrderNumber="15" Role="SynonymQualifier"/>
                <ItemRef ItemOID="IT.DM.BRTHDTC" Mandatory="No" OrderNumber="16" Role="RecordQualifier"/>
                <ItemRef ItemOID="IT.DM.AGE" Mandatory="No" OrderNumber="17" Role="RecordQualifier"/>
                <ItemRef ItemOID="IT.DM.AGEU" Mandatory="No" OrderNumber="18" Role="VariableQualifier"/>
                <ItemRef ItemOID="IT.DM.SEX" Mandatory="Yes" OrderNumber="19" Role="RecordQualifier"/>
                <ItemRef ItemOID="IT.DM.RACE" Mandatory="No" OrderNumber="20" Role="RecordQualifier"/>
                <ItemRef ItemOID="IT.DM.ETHNIC" Mandatory="No" OrderNumber="21" Role="RecordQualifier"/>
                <ItemRef ItemOID="IT.DM.ARMCD" Mandatory="Yes" OrderNumber="22" Role="RecordQualifier"/>
                <ItemRef ItemOID="IT.DM.ARM" Mandatory="Yes" OrderNumber="23" Role="SynonymQualifier"/>
                <ItemRef ItemOID="IT.DM.ACTARMCD" Mandatory="Yes" OrderNumber="24" Role="RecordQualifier"/>
                <ItemRef ItemOID="IT.DM.ACTARM" Mandatory="Yes" OrderNumber="25" Role="SynonymQualifier"/>
                <ItemRef ItemOID="IT.DM.COUNTRY" Mandatory="Yes" OrderNumber="26" Role="RecordQualifier"/>
                <ItemRef ItemOID="IT.DM.DMDTC" Mandatory="No" OrderNumber="27" Role="Timing"/>
                <ItemRef ItemOID="IT.DM.DMDY" Mandatory="No" OrderNumber="28" Role="Timing"/>
                <def:leaf ID="Location.DM" xlink:href="../transport/dm.xpt">
                    <def:title>Demographics SAS transport file</def:title>
                </def:leaf>
            </ItemGroupDef>
            <ItemGroupDef OID="IG.DS" Name="DS" Repeating="Yes" IsReferenceData="No" SASDatasetName="DS" Domain="DS" Purpose="Tabulation" def:Label="Disposition" def:Class="Events" def:Structure="One record per disposition status or protocol milestone per subject" def:DomainKeys="STUDYID, USUBJID, DSDECOD, DSSTDTC" def:ArchiveLocationID="Location.DS">
                <ItemRef ItemOID="IT.DS.STUDYID" Mandatory="Yes" OrderNumber="1" KeySequence="1" Role="Identifier"/>
                <ItemRef ItemOID="IT.DS.DOMAIN" Mandatory="Yes" OrderNumber="2" Role="Identifier"/>
                <ItemRef ItemOID="IT.DS.USUBJID" Mandatory="Yes" OrderNumber="3" KeySequence="2" Role="Identifier"/>
                <ItemRef ItemOID="IT.DS.DSSEQ" Mandatory="Yes" OrderNumber="4" Role="Identifier"/>
                <ItemRef ItemOID="IT.DS.DSGRPID" Mandatory="No" OrderNumber="5" Role="Identifier"/>
                <ItemRef ItemOID="IT.DS.DSREFID" Mandatory="No" OrderNumber="6" Role="Identifier"/>
                <ItemRef ItemOID="IT.DS.DSSPID" Mandatory="No" OrderNumber="7" Role="Identifier"/>
                <ItemRef ItemOID="IT.DS.DSTERM" Mandatory="Yes" OrderNumber="8" Role="Topic"/>
                <ItemRef ItemOID="IT.DS.DSDECOD" Mandatory="Yes" OrderNumber="9" KeySequence="3" Role="SynonymQualifier"/>
                <ItemRef ItemOID="IT.DS.DSCAT" Mandatory="No" OrderNumber="10" Role="GroupingQualifier"/>
                <ItemRef ItemOID="IT.DS.DSSCAT" Mandatory="No" OrderNumber="11" Role="Grouping"/>
                <ItemRef ItemOID="IT.DS.EPOCH" Mandatory="No" OrderNumber="12" Role="Timing"/>
                <ItemRef ItemOID="IT.DS.DSDTC" Mandatory="No" OrderNumber="13" Role="Timing"/>
                <ItemRef ItemOID="IT.DS.DSSTDTC" Mandatory="No" OrderNumber="14" KeySequence="4" Role="Timing"/>
                <ItemRef ItemOID="IT.DS.DSSTDY" Mandatory="No" OrderNumber="15" Role="Timing"/>
                <def:leaf ID="Location.DS" xlink:href="../transport/ds.xpt">
                    <def:title>Disposition SAS transport file</def:title>
                </def:leaf>
            </ItemGroupDef>
            <ItemGroupDef OID="IG.DV" Name="DV" Repeating="Yes" IsReferenceData="No" SASDatasetName="DV" Domain="DV" Purpose="Tabulation" def:Label="Protocol Deviations" def:Class="Events" def:Structure="One record per protocol deviation per subject" def:DomainKeys="STUDYID, USUBJID, DVTERM, DVSTDTC" def:ArchiveLocationID="Location.DV">
                <ItemRef ItemOID="IT.DV.STUDYID" Mandatory="Yes" OrderNumber="1" KeySequence="1" Role="Identifier"/>
                <ItemRef ItemOID="IT.DV.DOMAIN" Mandatory="Yes" OrderNumber="2" Role="Identifier"/>
                <ItemRef ItemOID="IT.DV.USUBJID" Mandatory="Yes" OrderNumber="3" KeySequence="2" Role="Identifier"/>
                <ItemRef ItemOID="IT.DV.DVSEQ" Mandatory="Yes" OrderNumber="4" Role="Identifier"/>
                <ItemRef ItemOID="IT.DV.DVREFID" Mandatory="No" OrderNumber="5" Role="Identifier"/>
                <ItemRef ItemOID="IT.DV.DVSPID" Mandatory="No" OrderNumber="6" Role="Identifier"/>
                <ItemRef ItemOID="IT.DV.DVTERM" Mandatory="Yes" OrderNumber="7" KeySequence="3" Role="Topic"/>
                <ItemRef ItemOID="IT.DV.DVDECOD" Mandatory="No" OrderNumber="8" Role="SynonymQualifier"/>
                <ItemRef ItemOID="IT.DV.DVCAT" Mandatory="No" OrderNumber="9" Role="GroupingQualifier"/>
                <ItemRef ItemOID="IT.DV.DVSCAT" Mandatory="No" OrderNumber="10" Role="GroupingQualifier"/>
                <ItemRef ItemOID="IT.DV.EPOCH" Mandatory="No" OrderNumber="11" Role="Timing"/>
                <ItemRef ItemOID="IT.DV.DVSTDTC" Mandatory="No" OrderNumber="12" KeySequence="4" Role="Timing"/>
                <ItemRef ItemOID="IT.DV.DVENDTC" Mandatory="No" OrderNumber="13" Role="Timing"/>
                <def:leaf ID="Location.DV" xlink:href="../transport/dv.xpt">
                    <def:title>Protocol Deviations SAS transport file</def:title>
                </def:leaf>
            </ItemGroupDef>
            <ItemGroupDef OID="IG.EG" Name="EG" Repeating="Yes" IsReferenceData="No" SASDatasetName="EG" Domain="EG" Purpose="Tabulation" def:Label="ECG Test Results" def:Class="Findings" def:Structure="One record per ECG observation per time point per visit per subject" def:DomainKeys="STUDYID, USUBJID, EGTESTCD, VISITNUM, EGTPTREF, EGTPTNUM" def:ArchiveLocationID="Location.EG">
                <ItemRef ItemOID="IT.EG.STUDYID" Mandatory="Yes" OrderNumber="1" KeySequence="1" Role="Identifier"/>
                <ItemRef ItemOID="IT.EG.DOMAIN" Mandatory="Yes" OrderNumber="2" Role="Identifier"/>
                <ItemRef ItemOID="IT.EG.USUBJID" Mandatory="Yes" OrderNumber="3" KeySequence="2" Role="Identifier"/>
                <ItemRef ItemOID="IT.EG.EGSEQ" Mandatory="Yes" OrderNumber="4" Role="Identifier"/>
                <ItemRef ItemOID="IT.EG.EGGRPID" Mandatory="No" OrderNumber="5" Role="Identifier"/>
                <ItemRef ItemOID="IT.EG.EGREFID" Mandatory="No" OrderNumber="6" Role="Identifier"/>
                <ItemRef ItemOID="IT.EG.EGSPID" Mandatory="No" OrderNumber="7" Role="Identifier"/>
                <ItemRef ItemOID="IT.EG.EGTESTCD" Mandatory="Yes" OrderNumber="8" KeySequence="3" Role="Topic"/>
                <ItemRef ItemOID="IT.EG.EGTEST" Mandatory="Yes" OrderNumber="9" Role="SynonymQualifier"/>
                <ItemRef ItemOID="IT.EG.EGCAT" Mandatory="No" OrderNumber="10" Role="GroupingQualifier"/>
                <ItemRef ItemOID="IT.EG.EGSCAT" Mandatory="No" OrderNumber="11" Role="GroupingQualifier"/>
                <ItemRef ItemOID="IT.EG.EGPOS" Mandatory="No" OrderNumber="12" Role="RecordQualifier"/>
                <ItemRef ItemOID="IT.EG.EGORRES" Mandatory="No" OrderNumber="13" Role="ResultQualifier"/>
                <ItemRef ItemOID="IT.EG.EGORRESU" Mandatory="No" OrderNumber="14" Role="VariableQualifier"/>
                <ItemRef ItemOID="IT.EG.EGSTRESC" Mandatory="No" OrderNumber="15" Role="ResultQualifier"/>
                <ItemRef ItemOID="IT.EG.EGSTRESN" Mandatory="No" OrderNumber="16" Role="ResultQualifier"/>
                <ItemRef ItemOID="IT.EG.EGSTRESU" Mandatory="No" OrderNumber="17" Role="VariableQualifier"/>
                <ItemRef ItemOID="IT.EG.EGSTAT" Mandatory="No" OrderNumber="18" Role="RecordQualifier"/>
                <ItemRef ItemOID="IT.EG.EGREASND" Mandatory="No" OrderNumber="19" Role="RecordQualifier"/>
                <ItemRef ItemOID="IT.EG.EGXFN" Mandatory="No" OrderNumber="20" Role="RecordQualifier"/>
                <ItemRef ItemOID="IT.EG.EGNAM" Mandatory="No" OrderNumber="21" Role="RecordQualifier"/>
                <ItemRef ItemOID="IT.EG.EGLOC" Mandatory="No" OrderNumber="22" Role="RecordQualifier"/>
                <ItemRef ItemOID="IT.EG.EGMETHOD" Mandatory="No" OrderNumber="23" Role="RecordQualifier"/>
                <ItemRef ItemOID="IT.EG.EGBLFL" Mandatory="No" OrderNumber="24" Role="RecordQualifier"/>
                <ItemRef ItemOID="IT.EG.EGDRVFL" Mandatory="No" OrderNumber="25" Role="RecordQualifier"/>
                <ItemRef ItemOID="IT.EG.EGEVAL" Mandatory="No" OrderNumber="26" Role="RecordQualifier"/>
                <ItemRef ItemOID="IT.EG.VISITNUM" Mandatory="No" OrderNumber="27" KeySequence="4" Role="Timing"/>
                <ItemRef ItemOID="IT.EG.VISIT" Mandatory="No" OrderNumber="28" Role="Timing"/>
                <ItemRef ItemOID="IT.EG.VISITDY" Mandatory="No" OrderNumber="29" Role="Timing"/>
                <ItemRef ItemOID="IT.EG.EGDTC" Mandatory="No" OrderNumber="30" Role="Timing"/>
                <ItemRef ItemOID="IT.EG.EGDY" Mandatory="No" OrderNumber="31" Role="Timing"/>
                <ItemRef ItemOID="IT.EG.EGTPT" Mandatory="No" OrderNumber="32" Role="Timing"/>
                <ItemRef ItemOID="IT.EG.EGTPTNUM" Mandatory="No" OrderNumber="33" KeySequence="6" Role="Timing"/>
                <ItemRef ItemOID="IT.EG.EGELTM" Mandatory="No" OrderNumber="34" Role="Timing"/>
                <ItemRef ItemOID="IT.EG.EGTPTREF" Mandatory="No" OrderNumber="35" KeySequence="5" Role="Timing"/>
                <ItemRef ItemOID="IT.EG.EGRFTDTC" Mandatory="No" OrderNumber="36" Role="Timing"/>
                <def:leaf ID="Location.EG" xlink:href="../transport/eg.xpt">
                    <def:title>ECG Test Results SAS transport file</def:title>
                </def:leaf>
            </ItemGroupDef>
            <ItemGroupDef OID="IG.EX" Name="EX" Repeating="Yes" IsReferenceData="No" SASDatasetName="EX" Domain="EX" Purpose="Tabulation" def:Label="Exposure" def:Class="Interventions" def:Structure="One record per constant dosing interval per subject" def:DomainKeys="STUDYID, USUBJID, EXTRT, EXSTDTC" def:ArchiveLocationID="Location.EX">
                <ItemRef ItemOID="IT.EX.STUDYID" Mandatory="Yes" OrderNumber="1" KeySequence="1" Role="Identifier"/>
                <ItemRef ItemOID="IT.EX.DOMAIN" Mandatory="Yes" OrderNumber="2" Role="Identifier"/>
                <ItemRef ItemOID="IT.EX.USUBJID" Mandatory="Yes" OrderNumber="3" KeySequence="2" Role="Identifier"/>
                <ItemRef ItemOID="IT.EX.EXSEQ" Mandatory="Yes" OrderNumber="4" Role="Identifier"/>
                <ItemRef ItemOID="IT.EX.EXGRPID" Mandatory="No" OrderNumber="5" Role="Identifier"/>
                <ItemRef ItemOID="IT.EX.EXSPID" Mandatory="No" OrderNumber="6" Role="Identifier"/>
                <ItemRef ItemOID="IT.EX.EXTRT" Mandatory="Yes" OrderNumber="7" KeySequence="3" Role="Topic"/>
                <ItemRef ItemOID="IT.EX.EXCAT" Mandatory="No" OrderNumber="8" Role="GroupingQualifier"/>
                <ItemRef ItemOID="IT.EX.EXSCAT" Mandatory="No" OrderNumber="9" Role="GroupingQualifier"/>
                <ItemRef ItemOID="IT.EX.EXDOSE" Mandatory="No" OrderNumber="10" Role="RecordQualifier"/>
                <ItemRef ItemOID="IT.EX.EXDOSTXT" Mandatory="No" OrderNumber="11" Role="RecordQualifier"/>
                <ItemRef ItemOID="IT.EX.EXDOSU" Mandatory="No" OrderNumber="12" Role="VariableQualifier"/>
                <ItemRef ItemOID="IT.EX.EXDOSFRM" Mandatory="No" OrderNumber="13" Role="VariableQualifier"/>
                <ItemRef ItemOID="IT.EX.EXDOSFRQ" Mandatory="No" OrderNumber="14" Role="VariableQualifier"/>
                <ItemRef ItemOID="IT.EX.EXDOSTOT" Mandatory="No" OrderNumber="15" Role="RecordQualifier"/>
                <ItemRef ItemOID="IT.EX.EXDOSRGM" Mandatory="No" OrderNumber="16" Role="VariableQualifier"/>
                <ItemRef ItemOID="IT.EX.EXROUTE" Mandatory="No" OrderNumber="17" Role="VariableQualifier"/>
                <ItemRef ItemOID="IT.EX.EXLOT" Mandatory="No" OrderNumber="18" Role="RecordQualifier"/>
                <ItemRef ItemOID="IT.EX.EXLOC" Mandatory="No" OrderNumber="19" Role="RecordQualifier"/>
                <ItemRef ItemOID="IT.EX.EXTRTV" Mandatory="No" OrderNumber="20" Role="RecordQualifier"/>
                <ItemRef ItemOID="IT.EX.EXVAMT" Mandatory="No" OrderNumber="21" Role="VariableQualifier"/>
                <ItemRef ItemOID="IT.EX.EXVAMTU" Mandatory="No" OrderNumber="22" Role="VariableQualifier"/>
                <ItemRef ItemOID="IT.EX.EXADJ" Mandatory="No" OrderNumber="23" Role="RecordQualifier"/>
                <ItemRef ItemOID="IT.EX.TAETORD" Mandatory="No" OrderNumber="24" Role="Timing"/>
                <ItemRef ItemOID="IT.EX.EPOCH" Mandatory="No" OrderNumber="25" Role="Timing"/>
                <ItemRef ItemOID="IT.EX.EXSTDTC" Mandatory="No" OrderNumber="26" KeySequence="4" Role="Timing"/>
                <ItemRef ItemOID="IT.EX.EXENDTC" Mandatory="No" OrderNumber="27" Role="Timing"/>
                <ItemRef ItemOID="IT.EX.EXSTDY" Mandatory="No" OrderNumber="28" Role="Timing"/>
                <ItemRef ItemOID="IT.EX.EXENDY" Mandatory="No" OrderNumber="29" Role="Timing"/>
                <ItemRef ItemOID="IT.EX.EXDUR" Mandatory="No" OrderNumber="30" Role="Timing"/>
                <ItemRef ItemOID="IT.EX.EXTPT" Mandatory="No" OrderNumber="31" Role="Timing"/>
                <ItemRef ItemOID="IT.EX.EXTPTNUM" Mandatory="No" OrderNumber="32" Role="Timing"/>
                <ItemRef ItemOID="IT.EX.EXELTM" Mandatory="No" OrderNumber="33" Role="Timing"/>
                <ItemRef ItemOID="IT.EX.EXTPTREF" Mandatory="No" OrderNumber="34" Role="Timing"/>
                <def:leaf ID="Location.EX" xlink:href="../transport/ex.xpt">
                    <def:title>Exposure SAS transport file</def:title>
                </def:leaf>
            </ItemGroupDef>
            <ItemGroupDef OID="IG.FA" Name="FA" Repeating="Yes" IsReferenceData="No" SASDatasetName="FA" Domain="FA" Purpose="Tabulation" def:Label="Findings About" def:Class="Findings About" def:Structure="One record per finding per object per time point per time point reference per visit per subject" def:DomainKeys="STUDYID, USUBJID, FATESTCD, FAOBJ, VISITNUM" def:ArchiveLocationID="Location.FA">
                <ItemRef ItemOID="IT.FA.STUDYID" Mandatory="Yes" OrderNumber="1" KeySequence="1" Role="Identifier"/>
                <ItemRef ItemOID="IT.FA.DOMAIN" Mandatory="Yes" OrderNumber="2" Role="Identifier"/>
                <ItemRef ItemOID="IT.FA.USUBJID" Mandatory="Yes" OrderNumber="3" KeySequence="2" Role="Identifier"/>
                <ItemRef ItemOID="IT.FA.FASEQ" Mandatory="Yes" OrderNumber="4" Role="Identifier"/>
                <ItemRef ItemOID="IT.FA.FATESTCD" Mandatory="Yes" OrderNumber="5" KeySequence="3" Role="Topic"/>
                <ItemRef ItemOID="IT.FA.FATEST" Mandatory="Yes" OrderNumber="6" Role="SynonymQualifier"/>
                <ItemRef ItemOID="IT.FA.FAOBJ" Mandatory="Yes" OrderNumber="7" KeySequence="4" Role="RecordQualifier"/>
                <ItemRef ItemOID="IT.FA.FACAT" Mandatory="No" OrderNumber="8" Role="GroupingQualifier"/>
                <ItemRef ItemOID="IT.FA.FAORRES" Mandatory="No" OrderNumber="9" Role="ResultQualifier"/>
                <ItemRef ItemOID="IT.FA.FASTRESC" Mandatory="No" OrderNumber="10" Role="ResultQualifier"/>
                <ItemRef ItemOID="IT.FA.VISITNUM" Mandatory="No" OrderNumber="11" KeySequence="5" Role="Timing"/>
                <ItemRef ItemOID="IT.FA.FADTC" Mandatory="No" OrderNumber="12" Role="Timing"/>
                <def:leaf ID="Location.FA" xlink:href="../transport/fa.xpt">
                    <def:title>Findings About SAS transport file</def:title>
                </def:leaf>
            </ItemGroupDef>
            <ItemGroupDef OID="IG.IE" Name="IE" Repeating="Yes" IsReferenceData="No" SASDatasetName="IE" Domain="IE" Purpose="Tabulation" def:Label="Inclusion/Exclusion Criterion Not Met" def:Class="Findings" def:Structure="One record per inclusion/exclusion criterion not met per subject" def:DomainKeys="STUDYID, USUBJID, IETESTCD" def:ArchiveLocationID="Location.IE">
                <ItemRef ItemOID="IT.IE.STUDYID" Mandatory="Yes" OrderNumber="1" KeySequence="1" Role="Identifier"/>
                <ItemRef ItemOID="IT.IE.DOMAIN" Mandatory="Yes" OrderNumber="2" Role="Identifier"/>
                <ItemRef ItemOID="IT.IE.USUBJID" Mandatory="Yes" OrderNumber="3" KeySequence="2" Role="Identifier"/>
                <ItemRef ItemOID="IT.IE.IESEQ" Mandatory="Yes" OrderNumber="4" Role="Identifier"/>
                <ItemRef ItemOID="IT.IE.IESPID" Mandatory="No" OrderNumber="5" Role="Identifier"/>
                <ItemRef ItemOID="IT.IE.IETESTCD" Mandatory="Yes" OrderNumber="6" KeySequence="3" Role="Topic"/>
                <ItemRef ItemOID="IT.IE.IETEST" Mandatory="Yes" OrderNumber="7" Role="SynonymQualifier"/>
                <ItemRef ItemOID="IT.IE.IECAT" Mandatory="Yes" OrderNumber="8" Role="GroupingQualifier"/>
                <ItemRef ItemOID="IT.IE.IESCAT" Mandatory="No" OrderNumber="9" Role="GroupingQualifier"/>
                <ItemRef ItemOID="IT.IE.IEORRES" Mandatory="Yes" OrderNumber="10" Role="ResultQualifier"/>
                <ItemRef ItemOID="IT.IE.IESTRESC" Mandatory="Yes" OrderNumber="11" Role="ResultQualifier"/>
                <ItemRef ItemOID="IT.IE.VISITNUM" Mandatory="No" OrderNumber="12" Role="Timing"/>
                <ItemRef ItemOID="IT.IE.VISIT" Mandatory="No" OrderNumber="13" Role="Timing"/>
                <ItemRef ItemOID="IT.IE.VISITDY" Mandatory="No" OrderNumber="14" Role="Timing"/>
                <ItemRef ItemOID="IT.IE.IEDTC" Mandatory="No" OrderNumber="15" Role="Timing"/>
                <ItemRef ItemOID="IT.IE.IEDY" Mandatory="No" OrderNumber="16" Role="Timing"/>
                <def:leaf ID="Location.IE" xlink:href="../transport/ie.xpt">
                    <def:title>Inclusion/Exclusion Criterion Not Met SAS transport file</def:title>
                </def:leaf>
            </ItemGroupDef>
            <ItemGroupDef OID="IG.LB" Name="LB" Repeating="Yes" IsReferenceData="No" SASDatasetName="LB" Domain="LB" Purpose="Tabulation" def:Label="Laboratory Test Results" def:Class="Findings" def:Structure="One record per analyte per planned time point number per time point reference per visit per subject" def:DomainKeys="STUDYID, USUBJID, LBTESTCD, LBSPEC, VISITNUM, LBTPTREF, LBTPTNUM" def:ArchiveLocationID="Location.LB">
                <ItemRef ItemOID="IT.LB.STUDYID" Mandatory="Yes" OrderNumber="1" KeySequence="1" Role="Identifier"/>
                <ItemRef ItemOID="IT.LB.DOMAIN" Mandatory="Yes" OrderNumber="2" Role="Identifier"/>
                <ItemRef ItemOID="IT.LB.USUBJID" Mandatory="Yes" OrderNumber="3" KeySequence="2" Role="Identifier"/>
                <ItemRef ItemOID="IT.LB.LBSEQ" Mandatory="Yes" OrderNumber="4" Role="Identifier"/>
                <ItemRef ItemOID="IT.LB.LBGRPID" Mandatory="No" OrderNumber="5" Role="Identifier"/>
                <ItemRef ItemOID="IT.LB.LBREFID" Mandatory="No" OrderNumber="6" Role="Identifier"/>
                <ItemRef ItemOID="IT.LB.LBSPID" Mandatory="No" OrderNumber="7" Role="Identifier"/>
                <ItemRef ItemOID="IT.LB.LBTESTCD" Mandatory="Yes" OrderNumber="8" KeySequence="3" Role="Topic"/>
                <ItemRef ItemOID="IT.LB.LBTEST" Mandatory="Yes" OrderNumber="9" Role="SynonymQualifier"/>
                <ItemRef ItemOID="IT.LB.LBCAT" Mandatory="No" OrderNumber="10" Role="GroupingQualifier"/>
                <ItemRef ItemOID="IT.LB.LBSCAT" Mandatory="No" OrderNumber="11" Role="GroupingQualifier"/>
                <ItemRef ItemOID="IT.LB.LBORRES" Mandatory="No" OrderNumber="12" Role="ResultQualifier"/>
                <ItemRef ItemOID="IT.LB.LBORRESU" Mandatory="No" OrderNumber="13" Role="VariableQualifier"/>
                <ItemRef ItemOID="IT.LB.LBORNRLO" Mandatory="No" OrderNumber="14" Role="VariableQualifier"/>
                <ItemRef ItemOID="IT.LB.LBORNRHI" Mandatory="No" OrderNumber="15" Role="VariableQualifier"/>
                <ItemRef ItemOID="IT.LB.LBSTRESC" Mandatory="No" OrderNumber="16" Role="ResultQualifier"/>
                <ItemRef ItemOID="IT.LB.LBSTRESN" Mandatory="No" OrderNumber="17" Role="ResultQualifier"/>
                <ItemRef ItemOID="IT.LB.LBSTRESU" Mandatory="No" OrderNumber="18" Role="VariableQualifier"/>
                <ItemRef ItemOID="IT.LB.LBSTNRLO" Mandatory="No" OrderNumber="19" Role="VariableQualifier"/>
                <ItemRef ItemOID="IT.LB.LBSTNRHI" Mandatory="No" OrderNumber="20" Role="VariableQualifier"/>
                <ItemRef ItemOID="IT.LB.LBSTNRC" Mandatory="No" OrderNumber="21" Role="VariableQualifier"/>
                <ItemRef ItemOID="IT.LB.LBNRIND" Mandatory="No" OrderNumber="22" Role="VariableQualifier"/>
                <ItemRef ItemOID="IT.LB.LBSTAT" Mandatory="No" OrderNumber="23" Role="RecordQualifier"/>
                <ItemRef ItemOID="IT.LB.LBREASND" Mandatory="No" OrderNumber="24" Role="RecordQualifier"/>
                <ItemRef ItemOID="IT.LB.LBNAM" Mandatory="No" OrderNumber="25" Role="RecordQualifier"/>
                <ItemRef ItemOID="IT.LB.LBLOINC" Mandatory="No" OrderNumber="26" Role="SynonymQualifier"/>
                <ItemRef ItemOID="IT.LB.LBSPEC" Mandatory="No" OrderNumber="27" KeySequence="4" Role="RecordQualifier"/>
                <ItemRef ItemOID="IT.LB.LBSPCCND" Mandatory="No" OrderNumber="28" Role="RecordQualifier"/>
                <ItemRef ItemOID="IT.LB.LBMETHOD" Mandatory="No" OrderNumber="29" Role="RecordQualifier"/>
                <ItemRef ItemOID="IT.LB.LBBLFL" Mandatory="No" OrderNumber="30" Role="RecordQualifier"/>
                <ItemRef ItemOID="IT.LB.LBFAST" Mandatory="No" OrderNumber="31" Role="RecordQualifier"/>
                <ItemRef ItemOID="IT.LB.LBDRVFL" Mandatory="No" OrderNumber="32" Role="RecordQualifier"/>
                <ItemRef ItemOID="IT.LB.LBTOX" Mandatory="No" OrderNumber="33" Role="VariableQualifier"/>
                <ItemRef ItemOID="IT.LB.LBTOXGR" Mandatory="No" OrderNumber="34" Role="VariableQualifier"/>
                <ItemRef ItemOID="IT.LB.VISITNUM" Mandatory="No" OrderNumber="35" KeySequence="5" Role="Timing"/>
                <ItemRef ItemOID="IT.LB.VISIT" Mandatory="No" OrderNumber="36" Role="Timing"/>
                <ItemRef ItemOID="IT.LB.VISITDY" Mandatory="No" OrderNumber="37" Role="Timing"/>
                <ItemRef ItemOID="IT.LB.LBDTC" Mandatory="No" OrderNumber="38" Role="Timing"/>
                <ItemRef ItemOID="IT.LB.LBENDTC" Mandatory="No" OrderNumber="39" Role="Timing"/>
                <ItemRef ItemOID="IT.LB.LBDY" Mandatory="No" OrderNumber="40" Role="Timing"/>
                <ItemRef ItemOID="IT.LB.LBTPT" Mandatory="No" OrderNumber="41" Role="Timing"/>
                <ItemRef ItemOID="IT.LB.LBTPTNUM" Mandatory="No" OrderNumber="42" KeySequence="7" Role="Timing"/>
                <ItemRef ItemOID="IT.LB.LBELTM" Mandatory="No" OrderNumber="43" Role="Timing"/>
                <ItemRef ItemOID="IT.LB.LBTPTREF" Mandatory="No" OrderNumber="44" KeySequence="6" Role="Timing"/>
                <ItemRef ItemOID="IT.LB.LBRFTDTC" Mandatory="No" OrderNumber="45" Role="Timing"/>
                <def:leaf ID="Location.LB" xlink:href="../transport/lb.xpt">
                    <def:title>Laboratory Test Results SAS transport file</def:title>
                </def:leaf>
            </ItemGroupDef>
            <ItemGroupDef OID="IG.MB" Name="MB" Repeating="Yes" IsReferenceData="No" SASDatasetName="MB" Domain="MB" Purpose="Tabulation" def:Label="Microbiology Specimen" def:Class="Findings" def:Structure="One record per microbiology specimen finding per time point per visit per subject" def:DomainKeys="STUDYID, USUBJID, MBTESTCD, VISITNUM" def:ArchiveLocationID="Location.MB">
                <ItemRef ItemOID="IT.MB.STUDYID" Mandatory="Yes" OrderNumber="1" KeySequence="1" Role="Identifier"/>
                <ItemRef ItemOID="IT.MB.DOMAIN" Mandatory="Yes" OrderNumber="2" Role="Identifier"/>
                <ItemRef ItemOID="IT.MB.USUBJID" Mandatory="Yes" OrderNumber="3" KeySequence="2" Role="Identifier"/>
                <ItemRef ItemOID="IT.MB.MBSEQ" Mandatory="Yes" OrderNumber="4" Role="Identifier"/>
                <ItemRef ItemOID="IT.MB.MBGRPID" Mandatory="No" OrderNumber="5" Role="Identifier"/>
                <ItemRef ItemOID="IT.MB.MBREFID" Mandatory="No" OrderNumber="6" Role="Identifier"/>
                <ItemRef ItemOID="IT.MB.MBSPID" Mandatory="No" OrderNumber="7" Role="Identifier"/>
                <ItemRef ItemOID="IT.MB.MBTESTCD" Mandatory="Yes" OrderNumber="8" KeySequence="3" Role="Topic"/>
                <ItemRef ItemOID="IT.MB.MBTEST" Mandatory="Yes" OrderNumber="9" Role="SynonymQualifier"/>
                <ItemRef ItemOID="IT.MB.MBORRES" Mandatory="No" OrderNumber="10" Role="ResultQualifier"/>
                <ItemRef ItemOID="IT.MB.MBSTRESC" Mandatory="No" OrderNumber="11" Role="ResultQualifier"/>
                <ItemRef ItemOID="IT.MB.MBRESCAT" Mandatory="No" OrderNumber="12" Role="VariableQualifier"/>
                <ItemRef ItemOID="IT.MB.MBSPEC" Mandatory="No" OrderNumber="13" Role="RecordQualifier"/>
                <ItemRef ItemOID="IT.MB.MBSPCCND" Mandatory="No" OrderNumber="14" Role="RecordQualifier"/>
                <ItemRef ItemOID="IT.MB.MBLOC" Mandatory="No" OrderNumber="15" Role="RecordQualifier"/>
                <ItemRef ItemOID="IT.MB.MBMETHOD" Mandatory="No" OrderNumber="16" Role="RecordQualifier"/>
                <ItemRef ItemOID="IT.MB.VISITNUM" Mandatory="No" OrderNumber="17" KeySequence="4" Role="Timing"/>
                <ItemRef ItemOID="IT.MB.MBDTC" Mandatory="No" OrderNumber="18" Role="Timing"/>
                <def:leaf ID="Location.MB" xlink:href="../transport/mb.xpt">
                    <def:title>Microbiology Specimen SAS transport file</def:title>
                </def:leaf>
            </ItemGroupDef>
            <ItemGroupDef OID="IG.MH" Name="MH" Repeating="Yes" IsReferenceData="No" SASDatasetName="MH" Domain="MH" Purpose="Tabulation" def:Label="Medical History" def:Class="Events" def:Structure="One record per medical history event per subject" def:DomainKeys="STUDYID, USUBJID, MHDECOD" def:ArchiveLocationID="Location.MH">
                <ItemRef ItemOID="IT.MH.STUDYID" Mandatory="Yes" OrderNumber="1" KeySequence="1" Role="Identifier"/>
                <ItemRef ItemOID="IT.MH.DOMAIN" Mandatory="Yes" OrderNumber="2" Role="Identifier"/>
                <ItemRef ItemOID="IT.MH.USUBJID" Mandatory="Yes" OrderNumber="3" KeySequence="2" Role="Identifier"/>
                <ItemRef ItemOID="IT.MH.MHSEQ" Mandatory="Yes" OrderNumber="4" Role="Identifier"/>
                <ItemRef ItemOID="IT.MH.MHGRPID" Mandatory="No" OrderNumber="5" Role="Identifier"/>
                <ItemRef ItemOID="IT.MH.MHREFID" Mandatory="No" OrderNumber="6" Role="Identifier"/>
                <ItemRef ItemOID="IT.MH.MHSPID" Mandatory="No" OrderNumber="7" Role="Identifier"/>
                <ItemRef ItemOID="IT.MH.MHTERM" Mandatory="Yes" OrderNumber="8" Role="Topic"/>
                <ItemRef ItemOID="IT.MH.MHMODIFY" Mandatory="No" OrderNumber="9" Role="Synonym"/>
                <ItemRef ItemOID="IT.MH.MHDECOD" Mandatory="No" OrderNumber="10" KeySequence="3" Role="SynonymQualifier"/>
                <ItemRef ItemOID="IT.MH.MHCAT" Mandatory="No" OrderNumber="11" Role="GroupingQualifier"/>
                <ItemRef ItemOID="IT.MH.MHSCAT" Mandatory="No" OrderNumber="12" Role="GroupingQualifier"/>
                <ItemRef ItemOID="IT.MH.MHPRESP" Mandatory="No" OrderNumber="13" Role="RecordQualifier"/>
                <ItemRef ItemOID="IT.MH.MHOCCUR" Mandatory="No" OrderNumber="14" Role="RecordQualifier"/>
                <ItemRef ItemOID="IT.MH.MHSTAT" Mandatory="No" OrderNumber="15" Role="RecordQualifier"/>
                <ItemRef ItemOID="IT.MH.MHREASND" Mandatory="No" OrderNumber="16" Role="RecordQualifier"/>
                <ItemRef ItemOID="IT.MH.MHBODSYS" Mandatory="No" OrderNumber="17" Role="RecordQualifier"/>
                <ItemRef ItemOID="IT.MH.MHDTC" Mandatory="No" OrderNumber="18" Role="Timing"/>
                <ItemRef ItemOID="IT.MH.MHSTDTC" Mandatory="No" OrderNumber="19" Role="Timing"/>
                <ItemRef ItemOID="IT.MH.MHENDTC" Mandatory="No" OrderNumber="20" Role="Timing"/>
                <ItemRef ItemOID="IT.MH.MHDY" Mandatory="No" OrderNumber="21" Role="Timing"/>
                <ItemRef ItemOID="IT.MH.MHENRF" Mandatory="No" OrderNumber="22" Role="Timing"/>
                <ItemRef ItemOID="IT.MH.MHENRTPT" Mandatory="No" OrderNumber="23" Role="Timing"/>
                <ItemRef ItemOID="IT.MH.MHENTPT" Mandatory="No" OrderNumber="24" Role="Timing"/>
                <def:leaf ID="Location.MH" xlink:href="../transport/mh.xpt">
                    <def:title>Medical History SAS transport file</def:title>
                </def:leaf>
            </ItemGroupDef>
            <ItemGroupDef OID="IG.MS" Name="MS" Repeating="Yes" IsReferenceData="No" SASDatasetName="MS" Domain="MS" Purpose="Tabulation" def:Label="Microbiology Susceptibility" def:Class="Findings" def:Structure="One record per microbiology susceptibility test (or other organism-related finding) per organism found in MB" def:DomainKeys="STUDYID, USUBJID, MSTESTCD, VISITNUM" def:ArchiveLocationID="Location.MS">
                <ItemRef ItemOID="IT.MS.STUDYID" Mandatory="Yes" OrderNumber="1" KeySequence="1" Role="Identifier"/>
                <ItemRef ItemOID="IT.MS.DOMAIN" Mandatory="Yes" OrderNumber="2" Role="Identifier"/>
                <ItemRef ItemOID="IT.MS.USUBJID" Mandatory="Yes" OrderNumber="3" KeySequence="2" Role="Identifier"/>
                <ItemRef ItemOID="IT.MS.MSSEQ" Mandatory="Yes" OrderNumber="4" Role="Identifier"/>
                <ItemRef ItemOID="IT.MS.MSGRPID" Mandatory="Yes" OrderNumber="5" Role="Identifier"/>
                <ItemRef ItemOID="IT.MS.MSTESTCD" Mandatory="Yes" OrderNumber="6" KeySequence="3" Role="Topic"/>
                <ItemRef ItemOID="IT.MS.MSTEST" Mandatory="Yes" OrderNumber="7" Role="SynonymQualifier"/>
                <ItemRef ItemOID="IT.MS.MSCAT" Mandatory="Yes" OrderNumber="8" Role="GroupingQualifier"/>
                <ItemRef ItemOID="IT.MS.MSORRES" Mandatory="No" OrderNumber="9" Role="ResultQualifier"/>
                <ItemRef ItemOID="IT.MS.MSORRESU" Mandatory="No" OrderNumber="10" Role="VariableQualifier"/>
                <ItemRef ItemOID="IT.MS.MSSTRESC" Mandatory="No" OrderNumber="11" Role="ResultQualifier"/>
                <ItemRef ItemOID="IT.MS.MSSTRESN" Mandatory="No" OrderNumber="12" Role="ResultQualifier"/>
                <ItemRef ItemOID="IT.MS.MSSTRESU" Mandatory="No" OrderNumber="13" Role="VariableQualifier"/>
                <ItemRef ItemOID="IT.MS.MSRESCAT" Mandatory="No" OrderNumber="14" Role="VariableQualifier"/>
                <ItemRef ItemOID="IT.MS.MSMETHOD" Mandatory="No" OrderNumber="15" Role="RecordQualifier"/>
                <ItemRef ItemOID="IT.MS.VISITNUM" Mandatory="No" OrderNumber="16" KeySequence="4" Role="Timing"/>
                <def:leaf ID="Location.MS" xlink:href="../transport/ms.xpt">
                    <def:title>Microbiology Susceptibility Test SAS transport file</def:title>
                </def:leaf>
            </ItemGroupDef>
            <ItemGroupDef OID="IG.PC" Name="PC" Repeating="Yes" IsReferenceData="No" SASDatasetName="PC" Domain="PC" Purpose="Tabulation" def:Label="PK Concentrations" def:Class="Findings" def:Structure="One record per analyte per planned time point number per time point reference per visit per subject" def:DomainKeys="STUDYID, USUBJID, PCTESTCD, VISITNUM, PCTPTREF, PCTPTNUM" def:ArchiveLocationID="Location.PC">
                <ItemRef ItemOID="IT.PC.STUDYID" Mandatory="Yes" OrderNumber="1" KeySequence="1" Role="Identifier"/>
                <ItemRef ItemOID="IT.PC.DOMAIN" Mandatory="Yes" OrderNumber="2" Role="Identifier"/>
                <ItemRef ItemOID="IT.PC.USUBJID" Mandatory="Yes" OrderNumber="3" KeySequence="2" Role="Identifier"/>
                <ItemRef ItemOID="IT.PC.PCSEQ" Mandatory="Yes" OrderNumber="4" Role="Identifier"/>
                <ItemRef ItemOID="IT.PC.PCGRPID" Mandatory="No" OrderNumber="5" Role="Identifier"/>
                <ItemRef ItemOID="IT.PC.PCREFID" Mandatory="No" OrderNumber="6" Role="Identifier"/>
                <ItemRef ItemOID="IT.PC.PCTESTCD" Mandatory="Yes" OrderNumber="7" KeySequence="3" Role="Topic"/>
                <ItemRef ItemOID="IT.PC.PCTEST" Mandatory="Yes" OrderNumber="8" Role="SynonymQualifier"/>
                <ItemRef ItemOID="IT.PC.PCCAT" Mandatory="No" OrderNumber="9" Role="GroupingQualifier"/>
                <ItemRef ItemOID="IT.PC.PCORRES" Mandatory="No" OrderNumber="10" Role="ResultQualifier"/>
                <ItemRef ItemOID="IT.PC.PCORRESU" Mandatory="No" OrderNumber="11" Role="VariableQualifier"/>
                <ItemRef ItemOID="IT.PC.PCSTRESC" Mandatory="No" OrderNumber="12" Role="ResultQualifier"/>
                <ItemRef ItemOID="IT.PC.PCSTRESN" Mandatory="No" OrderNumber="13" Role="ResultQualifier"/>
                <ItemRef ItemOID="IT.PC.PCSTRESU" Mandatory="No" OrderNumber="14" Role="VariableQualifier"/>
                <ItemRef ItemOID="IT.PC.PCSTAT" Mandatory="No" OrderNumber="15" Role="RecordQualifier"/>
                <ItemRef ItemOID="IT.PC.PCSPEC" Mandatory="Yes" OrderNumber="16" Role="RecordQualifier"/>
                <ItemRef ItemOID="IT.PC.PCLLOQ" Mandatory="No" OrderNumber="17" Role="VariableQualifier"/>
                <ItemRef ItemOID="IT.PC.VISITNUM" Mandatory="No" OrderNumber="18" KeySequence="4" Role="Timing"/>
                <ItemRef ItemOID="IT.PC.VISIT" Mandatory="No" OrderNumber="19" Role="Timing"/>
                <ItemRef ItemOID="IT.PC.VISITDY" Mandatory="No" OrderNumber="20" Role="Timing"/>
                <ItemRef ItemOID="IT.PC.PCDTC" Mandatory="No" OrderNumber="21" Role="Timing"/>
                <ItemRef ItemOID="IT.PC.PCENDTC" Mandatory="No" OrderNumber="22" Role="Timing"/>
                <ItemRef ItemOID="IT.PC.PCDY" Mandatory="No" OrderNumber="23" Role="Timing"/>
                <ItemRef ItemOID="IT.PC.PCTPT" Mandatory="No" OrderNumber="24" Role="Timing"/>
                <ItemRef ItemOID="IT.PC.PCTPTNUM" Mandatory="No" OrderNumber="25" KeySequence="6" Role="Timing"/>
                <ItemRef ItemOID="IT.PC.PCELTM" Mandatory="No" OrderNumber="26" Role="Timing"/>
                <ItemRef ItemOID="IT.PC.PCTPTREF" Mandatory="No" OrderNumber="27" KeySequence="5" Role="Timing"/>
                <ItemRef ItemOID="IT.PC.PCRFTDTC" Mandatory="No" OrderNumber="28" Role="Timing"/>
                <ItemRef ItemOID="IT.PC.PCEVLINT" Mandatory="No" OrderNumber="29" Role="Timing"/>
                <def:leaf ID="Location.PC" xlink:href="../transport/pc.xpt">
                    <def:title>PK Concentrations SAS transport file</def:title>
                </def:leaf>
            </ItemGroupDef>
            <ItemGroupDef OID="IG.PE" Name="PE" Repeating="Yes" IsReferenceData="No" SASDatasetName="PE" Domain="PE" Purpose="Tabulation" def:Label="Physical Examination" def:Class="Findings" def:Structure="One record per body system or abnormality per visit per subject" def:DomainKeys="STUDYID, USUBJID, PETESTCD, VISITNUM" def:ArchiveLocationID="Location.PE">
                <ItemRef ItemOID="IT.PE.STUDYID" Mandatory="Yes" OrderNumber="1" KeySequence="1" Role="Identifier"/>
                <ItemRef ItemOID="IT.PE.DOMAIN" Mandatory="Yes" OrderNumber="2" Role="Identifier"/>
                <ItemRef ItemOID="IT.PE.USUBJID" Mandatory="Yes" OrderNumber="3" KeySequence="2" Role="Identifier"/>
                <ItemRef ItemOID="IT.PE.PESEQ" Mandatory="Yes" OrderNumber="4" Role="Identifier"/>
                <ItemRef ItemOID="IT.PE.PEGRPID" Mandatory="No" OrderNumber="5" Role="Identifier"/>
                <ItemRef ItemOID="IT.PE.PESPID" Mandatory="No" OrderNumber="6" Role="Identifier"/>
                <ItemRef ItemOID="IT.PE.PETESTCD" Mandatory="Yes" OrderNumber="7" KeySequence="3" Role="Topic"/>
                <ItemRef ItemOID="IT.PE.PETEST" Mandatory="Yes" OrderNumber="8" Role="SynonymQualifier"/>
                <ItemRef ItemOID="IT.PE.PEMODIFY" Mandatory="No" OrderNumber="9" Role="SynonymQualifier"/>
                <ItemRef ItemOID="IT.PE.PECAT" Mandatory="No" OrderNumber="10" Role="GroupingQualifier"/>
                <ItemRef ItemOID="IT.PE.PESCAT" Mandatory="No" OrderNumber="11" Role="GroupingQualifier"/>
                <ItemRef ItemOID="IT.PE.PEBODSYS" Mandatory="No" OrderNumber="12" Role="ResultQualifier"/>
                <ItemRef ItemOID="IT.PE.PEORRES" Mandatory="No" OrderNumber="13" Role="ResultQualifier"/>
                <ItemRef ItemOID="IT.PE.PEORRESU" Mandatory="No" OrderNumber="14" Role="VariableQualifier"/>
                <ItemRef ItemOID="IT.PE.PESTRESC" Mandatory="No" OrderNumber="15" Role="ResultQualifier"/>
                <ItemRef ItemOID="IT.PE.PESTAT" Mandatory="No" OrderNumber="16" Role="RecordQualifier"/>
                <ItemRef ItemOID="IT.PE.PEREASND" Mandatory="No" OrderNumber="17" Role="RecordQualifier"/>
                <ItemRef ItemOID="IT.PE.PELOC" Mandatory="No" OrderNumber="18" Role="RecordQualifier"/>
                <ItemRef ItemOID="IT.PE.PEMETHOD" Mandatory="No" OrderNumber="19" Role="RecordQualifier"/>
                <ItemRef ItemOID="IT.PE.PEEVAL" Mandatory="No" OrderNumber="20" Role="RecordQualifier"/>
                <ItemRef ItemOID="IT.PE.VISITNUM" Mandatory="No" OrderNumber="21" KeySequence="4" Role="Timing"/>
                <ItemRef ItemOID="IT.PE.VISIT" Mandatory="No" OrderNumber="22" Role="Timing"/>
                <ItemRef ItemOID="IT.PE.VISITDY" Mandatory="No" OrderNumber="23" Role="Timing"/>
                <ItemRef ItemOID="IT.PE.PEDTC" Mandatory="No" OrderNumber="24" Role="Timing"/>
                <ItemRef ItemOID="IT.PE.PEDY" Mandatory="No" OrderNumber="25" Role="Timing"/>
                <def:leaf ID="Location.PE" xlink:href="../transport/pe.xpt">
                    <def:title>Physical Examination SAS transport file</def:title>
                </def:leaf>
            </ItemGroupDef>
            <ItemGroupDef OID="IG.POOLDEF" Name="POOLDEF" Repeating="No" IsReferenceData="No" SASDatasetName="POOLDEF" Domain="POOLDEF" Purpose="Tabulation" def:Label="Pool Definition" def:Class="Special Purpose Datasets" def:Structure="One record per subject per pool identifier" def:DomainKeys="STUDYID, POOLID, USUBJID" def:ArchiveLocationID="Location.POOLDEF">
                <ItemRef ItemOID="IT.POOLDEF.STUDYID" Mandatory="Yes" OrderNumber="1" KeySequence="1" Role="Identifier"/>
                <ItemRef ItemOID="IT.POOLDEF.POOLID" Mandatory="Yes" OrderNumber="2" KeySequence="2" Role="Identifier"/>
                <ItemRef ItemOID="IT.POOLDEF.USUBJID" Mandatory="Yes" OrderNumber="3" KeySequence="3" Role="Identifier"/>
                <def:leaf ID="Location.POOLDEF" xlink:href="../transport/pooldef.xpt">
                    <def:title>Pool Definition SAS transport file</def:title>
                </def:leaf>
            </ItemGroupDef>
            <ItemGroupDef OID="IG.PP" Name="PP" Repeating="Yes" IsReferenceData="No" SASDatasetName="PP" Domain="PP" Purpose="Tabulation" def:Label="PK Parameters" def:Class="Findings" def:Structure="One record per PK parameter per time-concentration profile per modeling method per subject" def:DomainKeys="STUDYID, USUBJID, PPTESTCD, PPCAT, PPDTC" def:ArchiveLocationID="Location.PP">
                <ItemRef ItemOID="IT.PP.STUDYID" Mandatory="Yes" OrderNumber="1" KeySequence="1" Role="Identifier"/>
                <ItemRef ItemOID="IT.PP.DOMAIN" Mandatory="Yes" OrderNumber="2" Role="Identifier"/>
                <ItemRef ItemOID="IT.PP.USUBJID" Mandatory="Yes" OrderNumber="3" KeySequence="2" Role="Identifier"/>
                <ItemRef ItemOID="IT.PP.PPSEQ" Mandatory="Yes" OrderNumber="4" Role="Identifier"/>
                <ItemRef ItemOID="IT.PP.PPGRPID" Mandatory="No" OrderNumber="5" Role="Identifier"/>
                <ItemRef ItemOID="IT.PP.PPTESTCD" Mandatory="Yes" OrderNumber="6" KeySequence="3" Role="Topic"/>
                <ItemRef ItemOID="IT.PP.PPTEST" Mandatory="Yes" OrderNumber="7" Role="SynonymQualifier"/>
                <ItemRef ItemOID="IT.PP.PPCAT" Mandatory="No" OrderNumber="8" KeySequence="4" Role="GroupingQualifier"/>
                <ItemRef ItemOID="IT.PP.PPORRES" Mandatory="No" OrderNumber="9" Role="ResultQualifier"/>
                <ItemRef ItemOID="IT.PP.PPORRESU" Mandatory="No" OrderNumber="10" Role="VariableQualifier"/>
                <ItemRef ItemOID="IT.PP.PPSTRESC" Mandatory="No" OrderNumber="11" Role="ResultQualifier"/>
                <ItemRef ItemOID="IT.PP.PPSTRESN" Mandatory="No" OrderNumber="12" Role="ResultQualifier"/>
                <ItemRef ItemOID="IT.PP.PPSTRESU" Mandatory="No" OrderNumber="13" Role="VariableQualifier"/>
                <ItemRef ItemOID="IT.PP.PPSPEC" Mandatory="No" OrderNumber="14" Role="RecordQualifier"/>
                <ItemRef ItemOID="IT.PP.VISITNUM" Mandatory="No" OrderNumber="15" Role="Timing"/>
                <ItemRef ItemOID="IT.PP.VISIT" Mandatory="No" OrderNumber="16" Role="Timing"/>
                <ItemRef ItemOID="IT.PP.PPDTC" Mandatory="No" OrderNumber="17" KeySequence="5" Role="Timing"/>
                <ItemRef ItemOID="IT.PP.PPRFTDTC" Mandatory="No" OrderNumber="18" Role="Timing"/>
                <def:leaf ID="Location.PP" xlink:href="../transport/pp.xpt">
                    <def:title>PK Parameters SAS transport file</def:title>
                </def:leaf>
            </ItemGroupDef>
            <ItemGroupDef OID="IG.QS" Name="QS" Repeating="Yes" IsReferenceData="No" SASDatasetName="QS" Domain="QS" Purpose="Tabulation" def:Label="Questionnaire" def:Class="Findings" def:Structure="One record per questionnaire per question per time point per visit per subject" def:DomainKeys="STUDYID, USUBJID, QSCAT, QSTESTCD, VISITNUM, QSTPTREF, QSTPTNUM" def:ArchiveLocationID="Location.QS">
                <ItemRef ItemOID="IT.QS.STUDYID" Mandatory="Yes" OrderNumber="1" KeySequence="1" Role="Identifier"/>
                <ItemRef ItemOID="IT.QS.USUBJID" Mandatory="Yes" OrderNumber="2" KeySequence="2" Role="Identifier"/>
                <ItemRef ItemOID="IT.QS.DOMAIN" Mandatory="Yes" OrderNumber="3" Role="Identifier"/>
                <ItemRef ItemOID="IT.QS.QSSEQ" Mandatory="Yes" OrderNumber="4" Role="Identifier"/>
                <ItemRef ItemOID="IT.QS.QSGRPID" Mandatory="No" OrderNumber="5" Role="Identifier"/>
                <ItemRef ItemOID="IT.QS.QSSPID" Mandatory="No" OrderNumber="6" Role="Identifier"/>
                <ItemRef ItemOID="IT.QS.QSTESTCD" Mandatory="Yes" OrderNumber="7" KeySequence="4" Role="Topic"/>
                <ItemRef ItemOID="IT.QS.QSTEST" Mandatory="Yes" OrderNumber="8" Role="SynonymQualifier"/>
                <ItemRef ItemOID="IT.QS.QSCAT" Mandatory="Yes" OrderNumber="9" KeySequence="3" Role="GroupingQualifier"/>
                <ItemRef ItemOID="IT.QS.QSSCAT" Mandatory="No" OrderNumber="10" Role="GroupingQualifier"/>
                <ItemRef ItemOID="IT.QS.QSORRES" Mandatory="No" OrderNumber="11" Role="ResultQualifier"/>
                <ItemRef ItemOID="IT.QS.QSORRESU" Mandatory="No" OrderNumber="12" Role="VariableQualifier"/>
                <ItemRef ItemOID="IT.QS.QSSTRESC" Mandatory="No" OrderNumber="13" Role="ResultQualifier"/>
                <ItemRef ItemOID="IT.QS.QSSTRESN" Mandatory="No" OrderNumber="14" Role="ResultQualifier"/>
                <ItemRef ItemOID="IT.QS.QSSTRESU" Mandatory="No" OrderNumber="15" Role="VariableQualifier"/>
                <ItemRef ItemOID="IT.QS.QSSTAT" Mandatory="No" OrderNumber="16" Role="RecordQualifier"/>
                <ItemRef ItemOID="IT.QS.QSREASND" Mandatory="No" OrderNumber="17" Role="RecordQualifier"/>
                <ItemRef ItemOID="IT.QS.QSBLFL" Mandatory="No" OrderNumber="18" Role="RecordQualifier"/>
                <ItemRef ItemOID="IT.QS.QSDRVFL" Mandatory="No" OrderNumber="19" Role="RecordQualifier"/>
                <ItemRef ItemOID="IT.QS.VISITNUM" Mandatory="No" OrderNumber="20" KeySequence="5" Role="Timing"/>
                <ItemRef ItemOID="IT.QS.VISIT" Mandatory="No" OrderNumber="21" Role="Timing"/>
                <ItemRef ItemOID="IT.QS.VISITDY" Mandatory="No" OrderNumber="22" Role="Timing"/>
                <ItemRef ItemOID="IT.QS.QSDTC" Mandatory="No" OrderNumber="23" Role="Timing"/>
                <ItemRef ItemOID="IT.QS.QSDY" Mandatory="No" OrderNumber="24" Role="Timing"/>
                <ItemRef ItemOID="IT.QS.QSTPT" Mandatory="No" OrderNumber="25" Role="Timing"/>
                <ItemRef ItemOID="IT.QS.QSTPTNUM" Mandatory="No" OrderNumber="26" KeySequence="7" Role="Timing"/>
                <ItemRef ItemOID="IT.QS.QSELTM" Mandatory="No" OrderNumber="27" Role="Timing"/>
                <ItemRef ItemOID="IT.QS.QSTPTREF" Mandatory="No" OrderNumber="28" KeySequence="6" Role="Timing"/>
                <ItemRef ItemOID="IT.QS.QSRFTDTC" Mandatory="No" OrderNumber="29" Role="Timing"/>
                <ItemRef ItemOID="IT.QS.QSEVLINT" Mandatory="No" OrderNumber="30" Role="Timing"/>
                <def:leaf ID="Location.QS" xlink:href="../transport/qs.xpt">
                    <def:title>Questionnaires SAS transport file</def:title>
                </def:leaf>
            </ItemGroupDef>
            <ItemGroupDef OID="IG.RELREC" Name="RELREC" Repeating="Yes" IsReferenceData="No" SASDatasetName="RELREC" Domain="RELREC" Purpose="Tabulation" def:Label="Related Records" def:Class="Special Purpose Datasets" def:Structure="One record per related record, group of records or datasets" def:DomainKeys="STUDYID, RDOMAIN, USUBJID, IDVAR, IDVARVAL, RELID" def:ArchiveLocationID="Location.RELREC">
                <ItemRef ItemOID="IT.RELREC.STUDYID" Mandatory="Yes" OrderNumber="1" KeySequence="1"/>
                <ItemRef ItemOID="IT.RELREC.RDOMAIN" Mandatory="Yes" OrderNumber="2" KeySequence="2"/>
                <ItemRef ItemOID="IT.RELREC.USUBJID" Mandatory="No" OrderNumber="3" KeySequence="3"/>
                <ItemRef ItemOID="IT.RELREC.IDVAR" Mandatory="Yes" OrderNumber="4" KeySequence="4"/>
                <ItemRef ItemOID="IT.RELREC.IDVARVAL" Mandatory="No" OrderNumber="5" KeySequence="5"/>
                <ItemRef ItemOID="IT.RELREC.RELTYPE" Mandatory="No" OrderNumber="6"/>
                <ItemRef ItemOID="IT.RELREC.RELID" Mandatory="Yes" OrderNumber="7" KeySequence="6"/>
                <def:leaf ID="Location.RELREC" xlink:href="../transport/relrec.xpt">
                    <def:title>Related Records SAS transport file</def:title>
                </def:leaf>
            </ItemGroupDef>
            <ItemGroupDef OID="IG.RS" Name="RS" Repeating="Yes" IsReferenceData="No" SASDatasetName="RS" Domain="RS" Purpose="Tabulation" def:Label="Disease Response" def:Class="Findings" def:Structure="One record per response assessment per visit per subject per assessor" def:DomainKeys="STUDYID, USUBJID, RSSEQ" def:ArchiveLocationID="Location.RS">
                <ItemRef ItemOID="IT.RS.STUDYID" Mandatory="Yes" OrderNumber="1" KeySequence="1" Role="Identifier"/>
                <ItemRef ItemOID="IT.RS.DOMAIN" Mandatory="Yes" OrderNumber="2" Role="Identifier"/>
                <ItemRef ItemOID="IT.RS.USUBJID" Mandatory="Yes" OrderNumber="3" KeySequence="2" Role="Identifier"/>
                <ItemRef ItemOID="IT.RS.RSSEQ" Mandatory="Yes" OrderNumber="4" KeySequence="3" Role="Identifier"/>
                <ItemRef ItemOID="IT.RS.RSGRPID" Mandatory="No" OrderNumber="5" Role="Identifier"/>
                <ItemRef ItemOID="IT.RS.RSREFID" Mandatory="No" OrderNumber="6" Role="Identifier"/>
                <ItemRef ItemOID="IT.RS.RSSPID" Mandatory="No" OrderNumber="7" Role="Identifier"/>
                <ItemRef ItemOID="IT.RS.RSLNKID" Mandatory="No" OrderNumber="8" Role="Identifier"/>
                <ItemRef ItemOID="IT.RS.RSLNKGRP" Mandatory="No" OrderNumber="9" Role="Identifier"/>
                <ItemRef ItemOID="IT.RS.RSTESTCD" Mandatory="Yes" OrderNumber="10" Role="Topic"/>
                <ItemRef ItemOID="IT.RS.RSTEST" Mandatory="Yes" OrderNumber="11" Role="SynonymQualifier"/>
                <ItemRef ItemOID="IT.RS.RSCAT" Mandatory="No" OrderNumber="12" Role="GroupingQualifier"/>
                <ItemRef ItemOID="IT.RS.RSORRES" Mandatory="No" OrderNumber="13" Role="ResultQualifier"/>
                <ItemRef ItemOID="IT.RS.RSSTRESC" Mandatory="No" OrderNumber="14" Role="RecordQualifier"/>
                <ItemRef ItemOID="IT.RS.RSSTAT" Mandatory="No" OrderNumber="15" Role="ResultQualifier"/>
                <ItemRef ItemOID="IT.RS.RSREASND" Mandatory="No" OrderNumber="16" Role="RecordQualifier"/>
                <ItemRef ItemOID="IT.RS.RSNAM" Mandatory="No" OrderNumber="17" Role="RecordQualifier"/>
                <ItemRef ItemOID="IT.RS.RSEVAL" Mandatory="No" OrderNumber="18" Role="RecordQualifier"/>
                <ItemRef ItemOID="IT.RS.RSEVALID" Mandatory="No" OrderNumber="19" Role="VariableQualifier"/>
                <ItemRef ItemOID="IT.RS.RSACPTFL" Mandatory="No" OrderNumber="20" Role="RecordQualifier"/>
                <ItemRef ItemOID="IT.RS.VISITNUM" Mandatory="No" OrderNumber="21" Role="Timing"/>
                <ItemRef ItemOID="IT.RS.VISIT" Mandatory="No" OrderNumber="22" Role="Timing"/>
                <ItemRef ItemOID="IT.RS.VISITDY" Mandatory="No" OrderNumber="23" Role="Timing"/>
                <ItemRef ItemOID="IT.RS.EPOCH" Mandatory="No" OrderNumber="24" Role="Timing"/>
                <ItemRef ItemOID="IT.RS.RSDTC" Mandatory="No" OrderNumber="25" Role="Timing"/>
                <ItemRef ItemOID="IT.RS.RSDY" Mandatory="No" OrderNumber="26" Role="Timing"/>
                <def:leaf ID="Location.RS" xlink:href="../transport/rs.xpt">
                    <def:title>Disease Response SAS transport file</def:title>
                </def:leaf>
            </ItemGroupDef>
            <ItemGroupDef OID="IG.SC" Name="SC" Repeating="Yes" IsReferenceData="No" SASDatasetName="SC" Domain="SC" Purpose="Tabulation" def:Label="Subject Characteristics" def:Class="Findings" def:Structure="One record per characteristic per subject" def:DomainKeys="STUDYID, USUBJID, SCTESTCD" def:ArchiveLocationID="Location.SC">
                <ItemRef ItemOID="IT.SC.STUDYID" Mandatory="Yes" OrderNumber="1" KeySequence="1" Role="Identifier"/>
                <ItemRef ItemOID="IT.SC.DOMAIN" Mandatory="Yes" OrderNumber="2" Role="Identifier"/>
                <ItemRef ItemOID="IT.SC.USUBJID" Mandatory="Yes" OrderNumber="3" KeySequence="2" Role="Identifier"/>
                <ItemRef ItemOID="IT.SC.SCSEQ" Mandatory="Yes" OrderNumber="4" Role="Identifier"/>
                <ItemRef ItemOID="IT.SC.SCGRPID" Mandatory="No" OrderNumber="5" Role="Identifier"/>
                <ItemRef ItemOID="IT.SC.SCSPID" Mandatory="No" OrderNumber="6" Role="Identifier"/>
                <ItemRef ItemOID="IT.SC.SCTESTCD" Mandatory="Yes" OrderNumber="7" KeySequence="3" Role="Topic"/>
                <ItemRef ItemOID="IT.SC.SCTEST" Mandatory="Yes" OrderNumber="8" Role="SynonymQualifier"/>
                <ItemRef ItemOID="IT.SC.SCCAT" Mandatory="No" OrderNumber="9" Role="GroupingQualifier"/>
                <ItemRef ItemOID="IT.SC.SCSCAT" Mandatory="No" OrderNumber="10" Role="GroupingQualifier"/>
                <ItemRef ItemOID="IT.SC.SCORRES" Mandatory="No" OrderNumber="11" Role="ResultQualifier"/>
                <ItemRef ItemOID="IT.SC.SCORRESU" Mandatory="No" OrderNumber="12" Role="VariableQualifier"/>
                <ItemRef ItemOID="IT.SC.SCSTRESC" Mandatory="No" OrderNumber="13" Role="ResultQualifier"/>
                <ItemRef ItemOID="IT.SC.SCSTRESN" Mandatory="No" OrderNumber="14" Role="ResultQualifier"/>
                <ItemRef ItemOID="IT.SC.SCSTRESU" Mandatory="No" OrderNumber="15" Role="VariableQualifier"/>
                <ItemRef ItemOID="IT.SC.SCSTAT" Mandatory="No" OrderNumber="16" Role="RecordQualifier"/>
                <ItemRef ItemOID="IT.SC.SCREASND" Mandatory="No" OrderNumber="17" Role="RecordQualifier"/>
                <ItemRef ItemOID="IT.SC.SCDTC" Mandatory="No" OrderNumber="18" Role="Timing"/>
                <ItemRef ItemOID="IT.SC.SCDY" Mandatory="No" OrderNumber="19" Role="Timing"/>
                <def:leaf ID="Location.SC" xlink:href="../transport/sc.xpt">
                    <def:title>Subject Characteristics SAS transport file</def:title>
                </def:leaf>
            </ItemGroupDef>
            <ItemGroupDef OID="IG.SE" Name="SE" Repeating="Yes" IsReferenceData="No" SASDatasetName="SE" Domain="SE" Purpose="Tabulation" def:Label="Subject Elements" def:Class="Special Purpose Domains" def:Structure="One record per actual element per subject" def:DomainKeys="STUDYID, USUBJID, ETCD, SESTDTC" def:ArchiveLocationID="Location.SE">
                <ItemRef ItemOID="IT.SE.STUDYID" Mandatory="Yes" OrderNumber="1" KeySequence="1" Role="Identifier"/>
                <ItemRef ItemOID="IT.SE.DOMAIN" Mandatory="Yes" OrderNumber="2" Role="Identifier"/>
                <ItemRef ItemOID="IT.SE.USUBJID" Mandatory="Yes" OrderNumber="3" KeySequence="2" Role="Identifier"/>
                <ItemRef ItemOID="IT.SE.SESEQ" Mandatory="Yes" OrderNumber="4" Role="Identifier"/>
                <ItemRef ItemOID="IT.SE.ETCD" Mandatory="Yes" OrderNumber="5" KeySequence="3" Role="Topic"/>
                <ItemRef ItemOID="IT.SE.ELEMENT" Mandatory="No" OrderNumber="6" Role="SynonymQualifier"/>
                <ItemRef ItemOID="IT.SE.SESTDTC" Mandatory="Yes" OrderNumber="7" KeySequence="4" Role="Timing"/>
                <ItemRef ItemOID="IT.SE.SEENDTC" Mandatory="No" OrderNumber="8" Role="Timing"/>
                <ItemRef ItemOID="IT.SE.TAETORD" Mandatory="No" OrderNumber="9" Role="Timing"/>
                <ItemRef ItemOID="IT.SE.EPOCH" Mandatory="No" OrderNumber="10" Role="Timing"/>
                <ItemRef ItemOID="IT.SE.SEUPDES" Mandatory="No" OrderNumber="11" Role="SynonymQualifier"/>
                <def:leaf ID="Location.SE" xlink:href="../transport/se.xpt">
                    <def:title>Subject Elements SAS transport file</def:title>
                </def:leaf>
            </ItemGroupDef>
            <ItemGroupDef OID="IG.SU" Name="SU" Repeating="Yes" IsReferenceData="No" SASDatasetName="SU" Domain="SU" Purpose="Tabulation" def:Label="Substance Use" def:Class="Interventions" def:Structure="One record per substance type per reported occurrence per subject" def:DomainKeys="STUDYID, USUBJID, SUTRT, SUSTDTC" def:ArchiveLocationID="Location.SU">
                <ItemRef ItemOID="IT.SU.STUDYID" Mandatory="Yes" OrderNumber="1" KeySequence="1" Role="Identifier"/>
                <ItemRef ItemOID="IT.SU.DOMAIN" Mandatory="Yes" OrderNumber="2" Role="Identifier"/>
                <ItemRef ItemOID="IT.SU.USUBJID" Mandatory="Yes" OrderNumber="3" KeySequence="2" Role="Identifier"/>
                <ItemRef ItemOID="IT.SU.SUSEQ" Mandatory="Yes" OrderNumber="4" Role="Identifier"/>
                <ItemRef ItemOID="IT.SU.SUGRPID" Mandatory="No" OrderNumber="5" Role="Identifier"/>
                <ItemRef ItemOID="IT.SU.SUSPID" Mandatory="No" OrderNumber="6" Role="Identifier"/>
                <ItemRef ItemOID="IT.SU.SUTRT" Mandatory="Yes" OrderNumber="7" KeySequence="3" Role="Topic"/>
                <ItemRef ItemOID="IT.SU.SUMODIFY" Mandatory="No" OrderNumber="8" Role="SynonymQualifier"/>
                <ItemRef ItemOID="IT.SU.SUDECOD" Mandatory="No" OrderNumber="9" Role="SynonymQualifier"/>
                <ItemRef ItemOID="IT.SU.SUCAT" Mandatory="No" OrderNumber="10" Role="GroupingQualifier"/>
                <ItemRef ItemOID="IT.SU.SUSCAT" Mandatory="No" OrderNumber="11" Role="GroupingQualifier"/>
                <ItemRef ItemOID="IT.SU.SUPRESP" Mandatory="No" OrderNumber="12" Role="RecordQualifier"/>
                <ItemRef ItemOID="IT.SU.SUOCCUR" Mandatory="No" OrderNumber="13" Role="RecordQualifier"/>
                <ItemRef ItemOID="IT.SU.SUSTAT" Mandatory="No" OrderNumber="14" Role="RecordQualifier"/>
                <ItemRef ItemOID="IT.SU.SUREASND" Mandatory="No" OrderNumber="15" Role="RecordQualifier"/>
                <ItemRef ItemOID="IT.SU.SUCLAS" Mandatory="No" OrderNumber="16" Role="VariableQualifier"/>
                <ItemRef ItemOID="IT.SU.SUCLASCD" Mandatory="No" OrderNumber="17" Role="VariableQualifier"/>
                <ItemRef ItemOID="IT.SU.SUDOSE" Mandatory="No" OrderNumber="18" Role="RecordQualifier"/>
                <ItemRef ItemOID="IT.SU.SUDOSTXT" Mandatory="No" OrderNumber="19" Role="RecordQualifier"/>
                <ItemRef ItemOID="IT.SU.SUDOSU" Mandatory="No" OrderNumber="20" Role="VariableQualifier"/>
                <ItemRef ItemOID="IT.SU.SUDOSFRM" Mandatory="No" OrderNumber="21" Role="RecordQualifier"/>
                <ItemRef ItemOID="IT.SU.SUDOSFRQ" Mandatory="No" OrderNumber="22" Role="VariableQualifier"/>
                <ItemRef ItemOID="IT.SU.SUDOSTOT" Mandatory="No" OrderNumber="23" Role="RecordQualifier"/>
                <ItemRef ItemOID="IT.SU.SUROUTE" Mandatory="No" OrderNumber="24" Role="VariableQualifier"/>
                <ItemRef ItemOID="IT.SU.SUSTDTC" Mandatory="No" OrderNumber="25" KeySequence="4" Role="Timing"/>
                <ItemRef ItemOID="IT.SU.SUENDTC" Mandatory="No" OrderNumber="26" Role="Timing"/>
                <ItemRef ItemOID="IT.SU.SUSTDY" Mandatory="No" OrderNumber="27" Role="Timing"/>
                <ItemRef ItemOID="IT.SU.SUENDY" Mandatory="No" OrderNumber="28" Role="Timing"/>
                <ItemRef ItemOID="IT.SU.SUDUR" Mandatory="No" OrderNumber="29" Role="Timing"/>
                <ItemRef ItemOID="IT.SU.SUSTRF" Mandatory="No" OrderNumber="30" Role="Timing"/>
                <ItemRef ItemOID="IT.SU.SUENRF" Mandatory="No" OrderNumber="31" Role="Timing"/>
                <ItemRef ItemOID="IT.SU.SUSTRTPT" Mandatory="No" OrderNumber="32" Role="Timing"/>
                <ItemRef ItemOID="IT.SU.SUSTTPT" Mandatory="No" OrderNumber="33" Role="Timing"/>
                <ItemRef ItemOID="IT.SU.SUENRTPT" Mandatory="No" OrderNumber="34" Role="Timing"/>
                <ItemRef ItemOID="IT.SU.SUENTPT" Mandatory="No" OrderNumber="35" Role="Timing"/>
                <def:leaf ID="Location.SU" xlink:href="../transport/su.xpt">
                    <def:title>Substance Use SAS transport file</def:title>
                </def:leaf>
            </ItemGroupDef>
            <ItemGroupDef OID="IG.SUPPAE" Name="SUPPAE" Repeating="Yes" IsReferenceData="No" SASDatasetName="SUPPAE" Domain="SUPPAE" Purpose="Tabulation" def:Label="Supplemental Qualifiers" def:Class="Special Purpose Datasets" def:Structure="One record per IDVAR, IDVARVAL, and QNAM value per subject" def:DomainKeys="STUDYID, RDOMAIN, USUBJID, IDVAR, IDVARVAL, QNAM" def:ArchiveLocationID="Location.SUPPAE">
                <ItemRef ItemOID="IT.SUPPAE.STUDYID" Mandatory="Yes" OrderNumber="1" KeySequence="1"/>
                <ItemRef ItemOID="IT.SUPPAE.RDOMAIN" Mandatory="Yes" OrderNumber="2" KeySequence="2"/>
                <ItemRef ItemOID="IT.SUPPAE.USUBJID" Mandatory="Yes" OrderNumber="3" KeySequence="3"/>
                <ItemRef ItemOID="IT.SUPPAE.IDVAR" Mandatory="No" OrderNumber="4" KeySequence="4"/>
                <ItemRef ItemOID="IT.SUPPAE.IDVARVAL" Mandatory="No" OrderNumber="5" KeySequence="5"/>
                <ItemRef ItemOID="IT.SUPPAE.QNAM" Mandatory="Yes" OrderNumber="6" KeySequence="6"/>
                <ItemRef ItemOID="IT.SUPPAE.QLABEL" Mandatory="Yes" OrderNumber="7"/>
                <ItemRef ItemOID="IT.SUPPAE.QVAL" Mandatory="Yes" OrderNumber="8"/>
                <ItemRef ItemOID="IT.SUPPAE.QORIG" Mandatory="Yes" OrderNumber="9"/>
                <ItemRef ItemOID="IT.SUPPAE.QEVAL" Mandatory="No" OrderNumber="10"/>
                <def:leaf ID="Location.SUPPAE" xlink:href="../transport/suppae.xpt">
                    <def:title>Supplemental Qualifiers - AE SAS transport file</def:title>
                </def:leaf>
            </ItemGroupDef>
            <ItemGroupDef OID="IG.SV" Name="SV" Repeating="Yes" IsReferenceData="No" SASDatasetName="SV" Domain="SV" Purpose="Tabulation" def:Label="Subject Visits" def:Class="Special Purpose Domains" def:Structure="One record per actual visit per subject" def:DomainKeys="STUDYID, USUBJID, VISITNUM" def:ArchiveLocationID="Location.SV">
                <ItemRef ItemOID="IT.SV.STUDYID" Mandatory="Yes" OrderNumber="1" KeySequence="1" Role="Identifier"/>
                <ItemRef ItemOID="IT.SV.DOMAIN" Mandatory="Yes" OrderNumber="2" Role="Identifier"/>
                <ItemRef ItemOID="IT.SV.USUBJID" Mandatory="Yes" OrderNumber="3" KeySequence="2" Role="Identifier"/>
                <ItemRef ItemOID="IT.SV.VISITNUM" Mandatory="Yes" OrderNumber="4" KeySequence="3" Role="Topic"/>
                <ItemRef ItemOID="IT.SV.VISIT" Mandatory="No" OrderNumber="5" Role="SynonymQualifier"/>
                <ItemRef ItemOID="IT.SV.VISITDY" Mandatory="No" OrderNumber="6" Role="Timing"/>
                <ItemRef ItemOID="IT.SV.SVSTDTC" Mandatory="No" OrderNumber="7" Role="Timing"/>
                <ItemRef ItemOID="IT.SV.SVENDTC" Mandatory="No" OrderNumber="8" Role="Timing"/>
                <ItemRef ItemOID="IT.SV.SVSTDY" Mandatory="No" OrderNumber="9" Role="Timing"/>
                <ItemRef ItemOID="IT.SV.SVENDY" Mandatory="No" OrderNumber="10" Role="Timing"/>
                <ItemRef ItemOID="IT.SV.SVUPDES" Mandatory="No" OrderNumber="11" Role="SynonymQualifier"/>
                <def:leaf ID="Location.SV" xlink:href="../transport/sv.xpt">
                    <def:title>Subject Visits SAS transport file</def:title>
                </def:leaf>
            </ItemGroupDef>
            <ItemGroupDef OID="IG.TA" Name="TA" Repeating="No" IsReferenceData="Yes" SASDatasetName="TA" Domain="TA" Purpose="Tabulation" def:Label="Trial Arms" def:Class="Trial Design" def:Structure="One record per planned element per arm" def:DomainKeys="STUDYID, ARMCD, TAETORD" def:ArchiveLocationID="Location.TA">
                <ItemRef ItemOID="IT.TA.STUDYID" Mandatory="Yes" OrderNumber="1" KeySequence="1" Role="Identifier"/>
                <ItemRef ItemOID="IT.TA.DOMAIN" Mandatory="Yes" OrderNumber="2" Role="Identifier"/>
                <ItemRef ItemOID="IT.TA.ARMCD" Mandatory="Yes" OrderNumber="3" KeySequence="2" Role="Topic"/>
                <ItemRef ItemOID="IT.TA.ARM" Mandatory="Yes" OrderNumber="4" Role="SynonymQualifier"/>
                <ItemRef ItemOID="IT.TA.TAETORD" Mandatory="Yes" OrderNumber="5" KeySequence="3" Role="Timing"/>
                <ItemRef ItemOID="IT.TA.ETCD" Mandatory="Yes" OrderNumber="6" Role="RecordQualifier"/>
                <ItemRef ItemOID="IT.TA.ELEMENT" Mandatory="No" OrderNumber="7" Role="SynonymQualifier"/>
                <ItemRef ItemOID="IT.TA.TABRANCH" Mandatory="No" OrderNumber="8" Role="Rule"/>
                <ItemRef ItemOID="IT.TA.TATRANS" Mandatory="No" OrderNumber="9" Role="Rule"/>
                <ItemRef ItemOID="IT.TA.EPOCH" Mandatory="Yes" OrderNumber="10" Role="Timing"/>
                <def:leaf ID="Location.TA" xlink:href="../transport/ta.xpt">
                    <def:title>Trial Arms SAS transport file</def:title>
                </def:leaf>
            </ItemGroupDef>
            <ItemGroupDef OID="IG.TE" Name="TE" Repeating="No" IsReferenceData="Yes" SASDatasetName="TE" Domain="TE" Purpose="Tabulation" def:Label="Trial Elements" def:Class="Trial Design" def:Structure="One record per planned element" def:DomainKeys="STUDYID, ETCD" def:ArchiveLocationID="Location.TE">
                <ItemRef ItemOID="IT.TE.STUDYID" Mandatory="Yes" OrderNumber="1" KeySequence="1" Role="Identifier"/>
                <ItemRef ItemOID="IT.TE.DOMAIN" Mandatory="Yes" OrderNumber="2" Role="Identifier"/>
                <ItemRef ItemOID="IT.TE.ETCD" Mandatory="Yes" OrderNumber="3" KeySequence="2" Role="Topic"/>
                <ItemRef ItemOID="IT.TE.ELEMENT" Mandatory="Yes" OrderNumber="4" Role="SynonymQualifier"/>
                <ItemRef ItemOID="IT.TE.TESTRL" Mandatory="Yes" OrderNumber="5" Role="Rule"/>
                <ItemRef ItemOID="IT.TE.TEENRL" Mandatory="No" OrderNumber="6" Role="Rule"/>
                <ItemRef ItemOID="IT.TE.TEDUR" Mandatory="No" OrderNumber="7" Role="Timing"/>
                <def:leaf ID="Location.TE" xlink:href="../transport/te.xpt">
                    <def:title>Trial Elements SAS transport file</def:title>
                </def:leaf>
            </ItemGroupDef>
            <ItemGroupDef OID="IG.TI" Name="TI" Repeating="No" IsReferenceData="Yes" SASDatasetName="TI" Domain="TI" Purpose="Tabulation" def:Label="Trial Inclusion/Exclusion Criteria" def:Class="Trial Design" def:Structure="One record per I/E criterion" def:DomainKeys="STUDYID, IETESTCD" def:ArchiveLocationID="Location.TI">
                <ItemRef ItemOID="IT.TI.STUDYID" Mandatory="Yes" OrderNumber="1" KeySequence="1" Role="Identifier"/>
                <ItemRef ItemOID="IT.TI.DOMAIN" Mandatory="Yes" OrderNumber="2" Role="Identifier"/>
                <ItemRef ItemOID="IT.TI.IETESTCD" Mandatory="Yes" OrderNumber="3" KeySequence="2" Role="Topic"/>
                <ItemRef ItemOID="IT.TI.IETEST" Mandatory="Yes" OrderNumber="4" Role="SynonymQualifier"/>
                <ItemRef ItemOID="IT.TI.IECAT" Mandatory="Yes" OrderNumber="5" Role="GroupingQualifier"/>
                <ItemRef ItemOID="IT.TI.IESCAT" Mandatory="No" OrderNumber="6" Role="GroupingQualifier"/>
                <ItemRef ItemOID="IT.TI.TIRL" Mandatory="No" OrderNumber="7" Role="Rule"/>
                <ItemRef ItemOID="IT.TI.TIVERS" Mandatory="No" OrderNumber="8" Role="RecordQualifier"/>
                <def:leaf ID="Location.TI" xlink:href="../transport/ti.xpt">
                    <def:title>Trial Inclusion/Exclusion Criteria SAS transport file</def:title>
                </def:leaf>
            </ItemGroupDef>
            <ItemGroupDef OID="IG.TR" Name="TR" Repeating="Yes" IsReferenceData="No" SASDatasetName="TR" Domain="TR" Purpose="Tabulation" def:Label="Tumor Results" def:Class="Findings" def:Structure="One record per tumor measurement/assessment per visit per subject per assessor" def:DomainKeys="STUDYID, USUBJID, TRSEQ" def:ArchiveLocationID="Location.TR">
                <ItemRef ItemOID="IT.TR.STUDYID" Mandatory="Yes" OrderNumber="1" KeySequence="1" Role="Identifier"/>
                <ItemRef ItemOID="IT.TR.DOMAIN" Mandatory="Yes" OrderNumber="2" Role="Identifier"/>
                <ItemRef ItemOID="IT.TR.USUBJID" Mandatory="Yes" OrderNumber="3" KeySequence="2" Role="Identifier"/>
                <ItemRef ItemOID="IT.TR.TRSEQ" Mandatory="Yes" OrderNumber="4" KeySequence="3" Role="Identifier"/>
                <ItemRef ItemOID="IT.TR.TRGRPID" Mandatory="No" OrderNumber="5" Role="Identifier"/>
                <ItemRef ItemOID="IT.TR.TRREFID" Mandatory="No" OrderNumber="6" Role="Identifier"/>
                <ItemRef ItemOID="IT.TR.TRSPID" Mandatory="No" OrderNumber="7" Role="Identifier"/>
                <ItemRef ItemOID="IT.TR.TRLNKID" Mandatory="No" OrderNumber="8" Role="Identifier"/>
                <ItemRef ItemOID="IT.TR.TRLNKGRP" Mandatory="No" OrderNumber="9" Role="Identifier"/>
                <ItemRef ItemOID="IT.TR.TRTESTCD" Mandatory="Yes" OrderNumber="10" Role="Topic"/>
                <ItemRef ItemOID="IT.TR.TRTEST" Mandatory="Yes" OrderNumber="11" Role="SynonymQualifier"/>
                <ItemRef ItemOID="IT.TR.TRORRES" Mandatory="No" OrderNumber="12" Role="ResultQualifier"/>
                <ItemRef ItemOID="IT.TR.TRORRESU" Mandatory="No" OrderNumber="13" Role="VariableQualifier"/>
                <ItemRef ItemOID="IT.TR.TRSTRESC" Mandatory="No" OrderNumber="14" Role="RecordQualifier"/>
                <ItemRef ItemOID="IT.TR.TRSTRESN" Mandatory="No" OrderNumber="15" Role="ResultQualifier"/>
                <ItemRef ItemOID="IT.TR.TRSTRESU" Mandatory="No" OrderNumber="16" Role="VariableQualifier"/>
                <ItemRef ItemOID="IT.TR.TRSTAT" Mandatory="No" OrderNumber="17" Role="ResultQualifier"/>
                <ItemRef ItemOID="IT.TR.TRREASND" Mandatory="No" OrderNumber="18" Role="RecordQualifier"/>
                <ItemRef ItemOID="IT.TR.TRNAM" Mandatory="No" OrderNumber="19" Role="RecordQualifier"/>
                <ItemRef ItemOID="IT.TR.TRMETHOD" Mandatory="No" OrderNumber="20" Role="RecordQualifier"/>
                <ItemRef ItemOID="IT.TR.TREVAL" Mandatory="No" OrderNumber="21" Role="RecordQualifier"/>
                <ItemRef ItemOID="IT.TR.TREVALID" Mandatory="No" OrderNumber="22" Role="VariableQualifier"/>
                <ItemRef ItemOID="IT.TR.TRACPTFL" Mandatory="No" OrderNumber="23" Role="RecordQualifier"/>
                <ItemRef ItemOID="IT.TR.VISITNUM" Mandatory="No" OrderNumber="24" Role="Timing"/>
                <ItemRef ItemOID="IT.TR.VISIT" Mandatory="No" OrderNumber="25" Role="Timing"/>
                <ItemRef ItemOID="IT.TR.VISITDY" Mandatory="No" OrderNumber="26" Role="Timing"/>
                <ItemRef ItemOID="IT.TR.EPOCH" Mandatory="No" OrderNumber="27" Role="Timing"/>
                <ItemRef ItemOID="IT.TR.TRDTC" Mandatory="No" OrderNumber="28" Role="Timing"/>
                <ItemRef ItemOID="IT.TR.TRDY" Mandatory="No" OrderNumber="29" Role="Timing"/>
                <def:leaf ID="Location.TR" xlink:href="../transport/tr.xpt">
                    <def:title>Tumor Results SAS transport file</def:title>
                </def:leaf>
            </ItemGroupDef>
            <ItemGroupDef OID="IG.TS" Name="TS" Repeating="No" IsReferenceData="Yes" SASDatasetName="TS" Domain="TS" Purpose="Tabulation" def:Label="Trial Summary" def:Class="Trial Design" def:Structure="One record per trial summary parameter value" def:DomainKeys="STUDYID, TSPARMCD, TSSEQ" def:ArchiveLocationID="Location.TS">
                <ItemRef ItemOID="IT.TS.STUDYID" Mandatory="Yes" OrderNumber="1" KeySequence="1" Role="Identifier"/>
                <ItemRef ItemOID="IT.TS.DOMAIN" Mandatory="Yes" OrderNumber="2" Role="Identifier"/>
                <ItemRef ItemOID="IT.TS.TSSEQ" Mandatory="Yes" OrderNumber="3" KeySequence="3" Role="Identifier"/>
                <ItemRef ItemOID="IT.TS.TSGRPID" Mandatory="No" OrderNumber="4" Role="Identifier"/>
                <ItemRef ItemOID="IT.TS.TSPARMCD" Mandatory="Yes" OrderNumber="5" KeySequence="2" Role="Topic"/>
                <ItemRef ItemOID="IT.TS.TSPARM" Mandatory="Yes" OrderNumber="6" Role="SynonymQualifier"/>
                <ItemRef ItemOID="IT.TS.TSVAL" Mandatory="No" OrderNumber="7" Role="ResultQualifier"/>
                <ItemRef ItemOID="IT.TS.TSVALNF" Mandatory="No" OrderNumber="8" Role="ResultQualifier"/>
                <ItemRef ItemOID="IT.TS.TSVALCD" Mandatory="No" OrderNumber="9" Role="ResultQualifier"/>
                <ItemRef ItemOID="IT.TS.TSVCDREF" Mandatory="No" OrderNumber="10" Role="ResultQualifier"/>
                <ItemRef ItemOID="IT.TS.TSVCDVER" Mandatory="No" OrderNumber="11" Role="ResultQualifier"/>
                <def:leaf ID="Location.TS" xlink:href="../transport/ts.xpt">
                    <def:title>Trial Summary SAS transport file</def:title>
                </def:leaf>
            </ItemGroupDef>
            <ItemGroupDef OID="IG.TU" Name="TU" Repeating="Yes" IsReferenceData="No" SASDatasetName="TU" Domain="TU" Purpose="Tabulation" def:Label="Tumor Identification" def:Class="Findings" def:Structure="One record per identified tumor per subject per assessor" def:DomainKeys="STUDYID, USUBJID, TUSEQ" def:ArchiveLocationID="Location.TU">
                <ItemRef ItemOID="IT.TU.STUDYID" Mandatory="Yes" OrderNumber="1" KeySequence="1" Role="Identifier"/>
                <ItemRef ItemOID="IT.TU.DOMAIN" Mandatory="Yes" OrderNumber="2" Role="Identifier"/>
                <ItemRef ItemOID="IT.TU.USUBJID" Mandatory="Yes" OrderNumber="3" KeySequence="2" Role="Identifier"/>
                <ItemRef ItemOID="IT.TU.TUSEQ" Mandatory="Yes" OrderNumber="4" KeySequence="3" Role="Identifier"/>
                <ItemRef ItemOID="IT.TU.TUGRPID" Mandatory="No" OrderNumber="5" Role="Identifier"/>
                <ItemRef ItemOID="IT.TU.TUREFID" Mandatory="No" OrderNumber="6" Role="Identifier"/>
                <ItemRef ItemOID="IT.TU.TUSPID" Mandatory="No" OrderNumber="7" Role="Identifier"/>
                <ItemRef ItemOID="IT.TU.TULNKID" Mandatory="No" OrderNumber="8" Role="Identifier"/>
                <ItemRef ItemOID="IT.TU.TUTESTCD" Mandatory="Yes" OrderNumber="9" Role="Topic"/>
                <ItemRef ItemOID="IT.TU.TUTEST" Mandatory="Yes" OrderNumber="10" Role="SynonymQualifier"/>
                <ItemRef ItemOID="IT.TU.TUORRES" Mandatory="No" OrderNumber="11" Role="ResultQualifier"/>
                <ItemRef ItemOID="IT.TU.TUSTRESC" Mandatory="No" OrderNumber="12" Role="RecordQualifier"/>
                <ItemRef ItemOID="IT.TU.TUNAM" Mandatory="No" OrderNumber="13" Role="RecordQualifier"/>
                <ItemRef ItemOID="IT.TU.TULOC" Mandatory="No" OrderNumber="14" Role="RecordQualifier"/>
                <ItemRef ItemOID="IT.TU.TULAT" Mandatory="No" OrderNumber="15" Role="RecordQualifier"/>
                <ItemRef ItemOID="IT.TU.TUDIR" Mandatory="No" OrderNumber="16" Role="RecordQualifier"/>
                <ItemRef ItemOID="IT.TU.TUPORTOT" Mandatory="No" OrderNumber="17" Role="RecordQualifier"/>
                <ItemRef ItemOID="IT.TU.TUMETHOD" Mandatory="No" OrderNumber="18" Role="RecordQualifier"/>
                <ItemRef ItemOID="IT.TU.TUEVAL" Mandatory="No" OrderNumber="19" Role="RecordQualifier"/>
                <ItemRef ItemOID="IT.TU.TUEVALID" Mandatory="No" OrderNumber="20" Role="VariableQualifier"/>
                <ItemRef ItemOID="IT.TU.TUACPTFL" Mandatory="No" OrderNumber="21" Role="RecordQualifier"/>
                <ItemRef ItemOID="IT.TU.VISITNUM" Mandatory="No" OrderNumber="22" Role="Timing"/>
                <ItemRef ItemOID="IT.TU.VISIT" Mandatory="No" OrderNumber="23" Role="Timing"/>
                <ItemRef ItemOID="IT.TU.VISITDY" Mandatory="No" OrderNumber="24" Role="Timing"/>
                <ItemRef ItemOID="IT.TU.EPOCH" Mandatory="No" OrderNumber="25" Role="Timing"/>
                <ItemRef ItemOID="IT.TU.TUDTC" Mandatory="No" OrderNumber="26" Role="Timing"/>
                <ItemRef ItemOID="IT.TU.TUDY" Mandatory="No" OrderNumber="27" Role="Timing"/>
                <def:leaf ID="Location.TU" xlink:href="../transport/tu.xpt">
                    <def:title>Tumor Identification SAS transport file</def:title>
                </def:leaf>
            </ItemGroupDef>
            <ItemGroupDef OID="IG.TV" Name="TV" Repeating="No" IsReferenceData="Yes" SASDatasetName="TV" Domain="TV" Purpose="Tabulation" def:Label="Trial Visits" def:Class="Trial Design" def:Structure="One record per planned visit per arm" def:DomainKeys="STUDYID, VISITNUM, ARMCD" def:ArchiveLocationID="Location.TV">
                <ItemRef ItemOID="IT.TV.STUDYID" Mandatory="Yes" OrderNumber="1" KeySequence="1" Role="Identifier"/>
                <ItemRef ItemOID="IT.TV.DOMAIN" Mandatory="Yes" OrderNumber="2" Role="Identifier"/>
                <ItemRef ItemOID="IT.TV.VISITNUM" Mandatory="Yes" OrderNumber="3" KeySequence="2" Role="Topic"/>
                <ItemRef ItemOID="IT.TV.VISIT" Mandatory="No" OrderNumber="4" Role="SynonymQualifier"/>
                <ItemRef ItemOID="IT.TV.VISITDY" Mandatory="No" OrderNumber="5" Role="Timing"/>
                <ItemRef ItemOID="IT.TV.ARMCD" Mandatory="No" OrderNumber="6" KeySequence="3" Role="RecordQualifier"/>
                <ItemRef ItemOID="IT.TV.ARM" Mandatory="No" OrderNumber="7" Role="SynonymQualifier"/>
                <ItemRef ItemOID="IT.TV.TVSTRL" Mandatory="Yes" OrderNumber="8" Role="Rule"/>
                <ItemRef ItemOID="IT.TV.TVENRL" Mandatory="No" OrderNumber="9" Role="Rule"/>
                <def:leaf ID="Location.TV" xlink:href="../transport/tv.xpt">
                    <def:title>Trial Visits SAS transport file</def:title>
                </def:leaf>
            </ItemGroupDef>
            <ItemGroupDef OID="IG.VS" Name="VS" Repeating="Yes" IsReferenceData="No" SASDatasetName="VS" Domain="VS" Purpose="Tabulation" def:Label="Vital Signs" def:Class="Findings" def:Structure="One record per vital sign measurement per time point per visit per subject" def:DomainKeys="STUDYID, USUBJID, VSTESTCD, VISITNUM, VSTPTREF, VSTPTNUM" def:ArchiveLocationID="Location.VS">
                <ItemRef ItemOID="IT.VS.STUDYID" Mandatory="Yes" OrderNumber="1" KeySequence="1" Role="Identifier"/>
                <ItemRef ItemOID="IT.VS.DOMAIN" Mandatory="Yes" OrderNumber="2" Role="Identifier"/>
                <ItemRef ItemOID="IT.VS.USUBJID" Mandatory="Yes" OrderNumber="3" KeySequence="2" Role="Identifier"/>
                <ItemRef ItemOID="IT.VS.VSSEQ" Mandatory="Yes" OrderNumber="4" Role="Identifier"/>
                <ItemRef ItemOID="IT.VS.VSGRPID" Mandatory="No" OrderNumber="5" Role="Identifier"/>
                <ItemRef ItemOID="IT.VS.VSSPID" Mandatory="No" OrderNumber="6" Role="Identifier"/>
                <ItemRef ItemOID="IT.VS.VSTESTCD" Mandatory="Yes" OrderNumber="7" KeySequence="3" Role="Topic"/>
                <ItemRef ItemOID="IT.VS.VSTEST" Mandatory="Yes" OrderNumber="8" Role="SynonymQualifier"/>
                <ItemRef ItemOID="IT.VS.VSCAT" Mandatory="No" OrderNumber="9" Role="GroupingQualifier"/>
                <ItemRef ItemOID="IT.VS.VSSCAT" Mandatory="No" OrderNumber="10" Role="GroupingQualifier"/>
                <ItemRef ItemOID="IT.VS.VSPOS" Mandatory="No" OrderNumber="11" Role="RecordQualifier"/>
                <ItemRef ItemOID="IT.VS.VSORRES" Mandatory="No" OrderNumber="12" Role="ResultQualifier"/>
                <ItemRef ItemOID="IT.VS.VSORRESU" Mandatory="No" OrderNumber="13" Role="VariableQualifier"/>
                <ItemRef ItemOID="IT.VS.VSSTRESC" Mandatory="No" OrderNumber="14" Role="ResultQualifier"/>
                <ItemRef ItemOID="IT.VS.VSSTRESN" Mandatory="No" OrderNumber="15" Role="ResultQualifier"/>
                <ItemRef ItemOID="IT.VS.VSSTRESU" Mandatory="No" OrderNumber="16" Role="VariableQualifier"/>
                <ItemRef ItemOID="IT.VS.VSSTAT" Mandatory="No" OrderNumber="17" Role="RecordQualifier"/>
                <ItemRef ItemOID="IT.VS.VSREASND" Mandatory="No" OrderNumber="18" Role="RecordQualifier"/>
                <ItemRef ItemOID="IT.VS.VSLOC" Mandatory="No" OrderNumber="19" Role="RecordQualifier"/>
                <ItemRef ItemOID="IT.VS.VSBLFL" Mandatory="No" OrderNumber="20" Role="RecordQualifier"/>
                <ItemRef ItemOID="IT.VS.VSDRVFL" Mandatory="No" OrderNumber="21" Role="RecordQualifier"/>
                <ItemRef ItemOID="IT.VS.VISITNUM" Mandatory="No" OrderNumber="22" KeySequence="4" Role="Timing"/>
                <ItemRef ItemOID="IT.VS.VISIT" Mandatory="No" OrderNumber="23" Role="Timing"/>
                <ItemRef ItemOID="IT.VS.VISITDY" Mandatory="No" OrderNumber="24" Role="Timing"/>
                <ItemRef ItemOID="IT.VS.VSDTC" Mandatory="No" OrderNumber="25" Role="Timing"/>
                <ItemRef ItemOID="IT.VS.VSDY" Mandatory="No" OrderNumber="26" Role="Timing"/>
                <ItemRef ItemOID="IT.VS.VSTPT" Mandatory="No" OrderNumber="27" Role="Timing"/>
                <ItemRef ItemOID="IT.VS.VSTPTNUM" Mandatory="No" OrderNumber="28" KeySequence="6" Role="Timing"/>
                <ItemRef ItemOID="IT.VS.VSELTM" Mandatory="No" OrderNumber="29" Role="Timing"/>
                <ItemRef ItemOID="IT.VS.VSTPTREF" Mandatory="No" OrderNumber="30" KeySequence="5" Role="Timing"/>
                <ItemRef ItemOID="IT.VS.VSRFTDTC" Mandatory="No" OrderNumber="31" Role="Timing"/>
                <def:leaf ID="Location.VS" xlink:href="../transport/vs.xpt">
                    <def:title>Vital Signs SAS transport file</def:title>
                </def:leaf>
            </ItemGroupDef>
            <ItemDef OID="IT.AE.STUDYID" Name="STUDYID" DataType="text" Length="40" SASFieldName="STUDYID" def:Label="Study Identifier"/>
            <ItemDef OID="IT.AE.DOMAIN" Name="DOMAIN" DataType="text" Length="8" SASFieldName="DOMAIN" def:Label="Domain Abbreviation"/>
            <ItemDef OID="IT.AE.USUBJID" Name="USUBJID" DataType="text" Length="40" SASFieldName="USUBJID" def:Label="Unique Subject Identifier"/>
            <ItemDef OID="IT.AE.AESEQ" Name="AESEQ" DataType="integer" Length="8" SASFieldName="AESEQ" def:Label="Sequence Number"/>
            <ItemDef OID="IT.AE.AEGRPID" Name="AEGRPID" DataType="text" Length="40" SASFieldName="AEGRPID" def:Label="Group ID"/>
            <ItemDef OID="IT.AE.AEREFID" Name="AEREFID" DataType="text" Length="40" SASFieldName="AEREFID" def:Label="Reference ID"/>
            <ItemDef OID="IT.AE.AESPID" Name="AESPID" DataType="text" Length="40" SASFieldName="AESPID" def:Label="Sponsor-Defined Identifier"/>
            <ItemDef OID="IT.AE.AETERM" Name="AETERM" DataType="text" Length="200" SASFieldName="AETERM" def:Label="Reported Term for the Adverse Event"/>
            <ItemDef OID="IT.AE.AEMODIFY" Name="AEMODIFY" DataType="text" Length="200" SASFieldName="AEMODIFY" def:Label="Modified Reported Term"/>
            <ItemDef OID="IT.AE.AELLT" Name="AELLT" DataType="text" Length="100" SASFieldName="AELLT" def:Label="Lowest Level Term"/>
            <ItemDef OID="IT.AE.AELLTCD" Name="AELLTCD" DataType="integer" Length="8" SASFieldName="AELLTCD" def:Label="Lowest Level Term Code"/>
            <ItemDef OID="IT.AE.AEDECOD" Name="AEDECOD" DataType="text" Length="200" SASFieldName="AEDECOD" def:Label="Dictionary-Derived Term"/>
            <ItemDef OID="IT.AE.AEPTCD" Name="AEPTCD" DataType="integer" Length="8" SASFieldName="AEPTCD" def:Label="Preferred Term Code"/>
            <ItemDef OID="IT.AE.AEHLT" Name="AEHLT" DataType="text" Length="100" SASFieldName="AEHLT" def:Label="High Level Term"/>
            <ItemDef OID="IT.AE.AEHLTCD" Name="AEHLTCD" DataType="integer" Length="8" SASFieldName="AEHLTCD" def:Label="High Level Term Code"/>
            <ItemDef OID="IT.AE.AEHLGT" Name="AEHLGT" DataType="text" Length="100" SASFieldName="AEHLGT" def:Label="High Level Group Term"/>
            <ItemDef OID="IT.AE.AEHLGTCD" Name="AEHLGTCD" DataType="integer" Length="8" SASFieldName="AEHLGTCD" def:Label="High Level Group Term Code"/>
            <ItemDef OID="IT.AE.AECAT" Name="AECAT" DataType="text" Length="40" SASFieldName="AECAT" def:Label="Category for Adverse Event"/>
            <ItemDef OID="IT.AE.AESCAT" Name="AESCAT" DataType="text" Length="40" SASFieldName="AESCAT" def:Label="Subcategory for Adverse Event"/>
            <ItemDef OID="IT.AE.AEPRESP" Name="AEPRESP" DataType="text" Length="2" SASFieldName="AEPRESP" def:Label="Pre-Specified Adverse Event">
                <CodeListRef CodeListOID="CL.NY"/>
            </ItemDef>
            <ItemDef OID="IT.AE.AEBODSYS" Name="AEBODSYS" DataType="text" Length="80" SASFieldName="AEBODSYS" def:Label="Body System or Organ Class"/>
            <ItemDef OID="IT.AE.AEBDSYCD" Name="AEBDSYCD" DataType="integer" Length="8" SASFieldName="AEBDSYCD" def:Label="Body System or Organ Class Code"/>
            <ItemDef OID="IT.AE.AESOC" Name="AESOC" DataType="text" Length="80" SASFieldName="AESOC" def:Label="Primary System Organ Class"/>
            <ItemDef OID="IT.AE.AESOCCD" Name="AESOCCD" DataType="integer" Length="8" SASFieldName="AESOCCD" def:Label="Primary System Organ Class Code"/>
            <ItemDef OID="IT.AE.AELOC" Name="AELOC" DataType="text" Length="40" SASFieldName="AELOC" def:Label="Location of Event">
                <CodeListRef CodeListOID="CL.LOC"/>
            </ItemDef>
            <ItemDef OID="IT.AE.AESEV" Name="AESEV" DataType="text" Length="20" SASFieldName="AESEV" def:Label="Severity/Intensity">
                <CodeListRef CodeListOID="CL.AESEV"/>
            </ItemDef>
            <ItemDef OID="IT.AE.AESER" Name="AESER" DataType="text" Length="2" SASFieldName="AESER" def:Label="Serious Event">
                <CodeListRef CodeListOID="CL.NY"/>
            </ItemDef>
            <ItemDef OID="IT.AE.AEACN" Name="AEACN" DataType="text" Length="40" SASFieldName="AEACN" def:Label="Action Taken with Study Treatment">
                <CodeListRef CodeListOID="CL.ACN"/>
            </ItemDef>
            <ItemDef OID="IT.AE.AEACNOTH" Name="AEACNOTH" DataType="text" Length="200" SASFieldName="AEACNOTH" def:Label="Other Action Taken"/>
            <ItemDef OID="IT.AE.AEREL" Name="AEREL" DataType="text" Length="40" SASFieldName="AEREL" def:Label="Causality"/>
            <ItemDef OID="IT.AE.AERELNST" Name="AERELNST" DataType="text" Length="40" SASFieldName="AERELNST" def:Label="Relationship to Non-Study Treatment"/>
            <ItemDef OID="IT.AE.AEPATT" Name="AEPATT" DataType="text" Length="20" SASFieldName="AEPATT" def:Label="Pattern of Adverse Event"/>
            <ItemDef OID="IT.AE.AEOUT" Name="AEOUT" DataType="text" Length="40" SASFieldName="AEOUT" def:Label="Outcome of Adverse Event">
                <CodeListRef CodeListOID="CL.OUT"/>
            </ItemDef>
            <ItemDef OID="IT.AE.AESCAN" Name="AESCAN" DataType="text" Length="2" SASFieldName="AESCAN" def:Label="Involves Cancer">
                <CodeListRef CodeListOID="CL.NY"/>
            </ItemDef>
            <ItemDef OID="IT.AE.AESCONG" Name="AESCONG" DataType="text" Length="2" SASFieldName="AESCONG" def:Label="Congenital Anomaly or Birth Defect">
                <CodeListRef CodeListOID="CL.NY"/>
            </ItemDef>
            <ItemDef OID="IT.AE.AESDISAB" Name="AESDISAB" DataType="text" Length="2" SASFieldName="AESDISAB" def:Label="Persist or Signif Disability/Incapacity">
                <CodeListRef CodeListOID="CL.NY"/>
            </ItemDef>
            <ItemDef OID="IT.AE.AESDTH" Name="AESDTH" DataType="text" Length="2" SASFieldName="AESDTH" def:Label="Results in Death">
                <CodeListRef CodeListOID="CL.NY"/>
            </ItemDef>
            <ItemDef OID="IT.AE.AESHOSP" Name="AESHOSP" DataType="text" Length="2" SASFieldName="AESHOSP" def:Label="Requires or Prolongs Hospitalization">
                <CodeListRef CodeListOID="CL.NY"/>
            </ItemDef>
            <ItemDef OID="IT.AE.AESLIFE" Name="AESLIFE" DataType="text" Length="2" SASFieldName="AESLIFE" def:Label="Is Life Threatening">
                <CodeListRef CodeListOID="CL.NY"/>
            </ItemDef>
            <ItemDef OID="IT.AE.AESOD" Name="AESOD" DataType="text" Length="2" SASFieldName="AESOD" def:Label="Occurred with Overdose">
                <CodeListRef CodeListOID="CL.NY"/>
            </ItemDef>
            <ItemDef OID="IT.AE.AESMIE" Name="AESMIE" DataType="text" Length="2" SASFieldName="AESMIE" def:Label="Other Medically Important Serious Event">
                <CodeListRef CodeListOID="CL.NY"/>
            </ItemDef>
            <ItemDef OID="IT.AE.AECONTRT" Name="AECONTRT" DataType="text" Length="2" SASFieldName="AECONTRT" def:Label="Concomitant or Additional Trtmnt Given">
                <CodeListRef CodeListOID="CL.NY"/>
            </ItemDef>
            <ItemDef OID="IT.AE.AETOXGR" Name="AETOXGR" DataType="text" Length="20" SASFieldName="AETOXGR" def:Label="Standard Toxicity Grade"/>
            <ItemDef OID="IT.AE.AESTDTC" Name="AESTDTC" DataType="datetime" SASFieldName="AESTDTC" def:Label="Start Date/Time of Adverse Event"/>
            <ItemDef OID="IT.AE.AEENDTC" Name="AEENDTC" DataType="datetime" SASFieldName="AEENDTC" def:Label="End Date/Time of Adverse Event"/>
            <ItemDef OID="IT.AE.AESTDY" Name="AESTDY" DataType="integer" Length="8" SASFieldName="AESTDY" def:Label="Study Day of Start of Adverse Event"/>
            <ItemDef OID="IT.AE.AEENDY" Name="AEENDY" DataType="integer" Length="8" SASFieldName="AEENDY" def:Label="Study Day of End of Adverse Event"/>
            <ItemDef OID="IT.AE.AEDUR" Name="AEDUR" DataType="text" Length="64" SASFieldName="AEDUR" def:Label="Duration of Adverse Event"/>
            <ItemDef OID="IT.AE.AEENRF" Name="AEENRF" DataType="text" Length="20" SASFieldName="AEENRF" def:Label="End Relative to Reference Period">
                <CodeListRef CodeListOID="CL.STENRF"/>
            </ItemDef>
            <ItemDef OID="IT.AE.AEENRTPT" Name="AEENRTPT" DataType="text" Length="40" SASFieldName="AEENRTPT" def:Label="End Relative to Reference Time Point"/>
            <ItemDef OID="IT.AE.AEENTPT" Name="AEENTPT" DataType="text" Length="40" SASFieldName="AEENTPT" def:Label="End Reference Time Point"/>
            <ItemDef OID="IT.CE.STUDYID" Name="STUDYID" DataType="text" Length="40" SASFieldName="STUDYID" def:Label="Study Identifier"/>
            <ItemDef OID="IT.CE.DOMAIN" Name="DOMAIN" DataType="text" Length="8" SASFieldName="DOMAIN" def:Label="Domain Abbreviation"/>
            <ItemDef OID="IT.CE.USUBJID" Name="USUBJID" DataType="text" Length="40" SASFieldName="USUBJID" def:Label="Unique Subject Identifier"/>
            <ItemDef OID="IT.CE.CESEQ" Name="CESEQ" DataType="integer" Length="8" SASFieldName="CESEQ" def:Label="Sequence Number"/>
            <ItemDef OID="IT.CE.CETERM" Name="CETERM" DataType="text" Length="200" SASFieldName="CETERM" def:Label="Reported Term for the Clinical Event"/>
            <ItemDef OID="IT.CE.CEPRESP" Name="CEPRESP" DataType="text" Length="2" SASFieldName="CEPRESP" def:Label="Clinical Event Pre-Specified">
                <CodeListRef CodeListOID="CL.NY"/>
            </ItemDef>
            <ItemDef OID="IT.CE.CEOCCUR" Name="CEOCCUR" DataType="text" Length="2" SASFieldName="CEOCCUR" def:Label="Clinical Event Occurrence">
                <CodeListRef CodeListOID="CL.NY"/>
            </ItemDef>
            <ItemDef OID="IT.CE.CESTAT" Name="CESTAT" DataType="text" Length="40" SASFieldName="CESTAT" def:Label="Completion Status">
                <CodeListRef CodeListOID="CL.ND"/>
            </ItemDef>
            <ItemDef OID="IT.CE.CESEV" Name="CESEV" DataType="text" Length="20" SASFieldName="CESEV" def:Label="Severity/Intensity"/>
            <ItemDef OID="IT.CE.CESTDTC" Name="CESTDTC" DataType="datetime" SASFieldName="CESTDTC" def:Label="Start Date/Time of Clinical Event"/>
            <ItemDef OID="IT.CE.CEENDTC" Name="CEENDTC" DataType="datetime" SASFieldName="CEENDTC" def:Label="End Date/Time of Clinical Event"/>
            <ItemDef OID="IT.CM.STUDYID" Name="STUDYID" DataType="text" Length="40" SASFieldName="STUDYID" def:Label="Study Identifier"/>
            <ItemDef OID="IT.CM.DOMAIN" Name="DOMAIN" DataType="text" Length="8" SASFieldName="DOMAIN" def:Label="Domain Abbreviation"/>
            <ItemDef OID="IT.CM.USUBJID" Name="USUBJID" DataType="text" Length="40" SASFieldName="USUBJID" def:Label="Unique Subject Identifier"/>
            <ItemDef OID="IT.CM.CMSEQ" Name="CMSEQ" DataType="integer" Length="8" SASFieldName="CMSEQ" def:Label="Sequence Number"/>
            <ItemDef OID="IT.CM.CMGRPID" Name="CMGRPID" DataType="text" Length="40" SASFieldName="CMGRPID" def:Label="Group ID"/>
            <ItemDef OID="IT.CM.CMSPID" Name="CMSPID" DataType="text" Length="40" SASFieldName="CMSPID" def:Label="Sponsor-Defined Identifier"/>
            <ItemDef OID="IT.CM.CMTRT" Name="CMTRT" DataType="text" Length="200" SASFieldName="CMTRT" def:Label="Reported Name of Drug, Med, or Therapy"/>
            <ItemDef OID="IT.CM.CMMODIFY" Name="CMMODIFY" DataType="text" Length="200" SASFieldName="CMMODIFY" def:Label="Modified Reported Name"/>
            <ItemDef OID="IT.CM.CMDECOD" Name="CMDECOD" DataType="text" Length="200" SASFieldName="CMDECOD" def:Label="Standardized Medication Name"/>
            <ItemDef OID="IT.CM.CMCAT" Name="CMCAT" DataType="text" Length="40" SASFieldName="CMCAT" def:Label="Category for Medication"/>
            <ItemDef OID="IT.CM.CMSCAT" Name="CMSCAT" DataType="text" Length="40" SASFieldName="CMSCAT" def:Label="Subcategory for Medication"/>
            <ItemDef OID="IT.CM.CMPRESP" Name="CMPRESP" DataType="text" Length="2" SASFieldName="CMPRESP" def:Label="CM Pre-Specified">
                <CodeListRef CodeListOID="CL.NY"/>
            </ItemDef>
            <ItemDef OID="IT.CM.CMOCCUR" Name="CMOCCUR" DataType="text" Length="2" SASFieldName="CMOCCUR" def:Label="CM Occurrence">
                <CodeListRef CodeListOID="CL.NY"/>
            </ItemDef>
            <ItemDef OID="IT.CM.CMSTAT" Name="CMSTAT" DataType="text" Length="40" SASFieldName="CMSTAT" def:Label="Completion Status">
                <CodeListRef CodeListOID="CL.ND"/>
            </ItemDef>
            <ItemDef OID="IT.CM.CMREASND" Name="CMREASND" DataType="text" Length="200" SASFieldName="CMREASND" def:Label="Reason Medication Not Collected"/>
            <ItemDef OID="IT.CM.CMINDC" Name="CMINDC" DataType="text" Length="200" SASFieldName="CMINDC" def:Label="Indication"/>
            <ItemDef OID="IT.CM.CMCLAS" Name="CMCLAS" DataType="text" Length="200" SASFieldName="CMCLAS" def:Label="Medication Class"/>
            <ItemDef OID="IT.CM.CMCLASCD" Name="CMCLASCD" DataType="text" Length="40" SASFieldName="CMCLASCD" def:Label="Medication Class Code"/>
            <ItemDef OID="IT.CM.CMDOSE" Name="CMDOSE" DataType="float" Length="8" SignificantDigits="3" SASFieldName="CMDOSE" def:Label="Dose per Administration" def:DisplayFormat="8.3"/>
            <ItemDef OID="IT.CM.CMDOSTXT" Name="CMDOSTXT" DataType="text" Length="200" SASFieldName="CMDOSTXT" def:Label="Dose Description"/>
            <ItemDef OID="IT.CM.CMDOSU" Name="CMDOSU" DataType="text" Length="40" SASFieldName="CMDOSU" def:Label="Dose Units">
                <CodeListRef CodeListOID="CL.UNIT"/>
            </ItemDef>
            <ItemDef OID="IT.CM.CMDOSFRM" Name="CMDOSFRM" DataType="text" Length="80" SASFieldName="CMDOSFRM" def:Label="Dose Form">
                <CodeListRef CodeListOID="CL.FRM"/>
            </ItemDef>
            <ItemDef OID="IT.CM.CMDOSFRQ" Name="CMDOSFRQ" DataType="text" Length="40" SASFieldName="CMDOSFRQ" def:Label="Dosing Frequency per Interval">
                <CodeListRef CodeListOID="CL.FREQ"/>
            </ItemDef>
            <ItemDef OID="IT.CM.CMDOSTOT" Name="CMDOSTOT" DataType="float" Length="8" SignificantDigits="3" SASFieldName="CMDOSTOT" def:Label="Total Daily Dose" def:DisplayFormat="8.3"/>
            <ItemDef OID="IT.CM.CMDOSRGM" Name="CMDOSRGM" DataType="text" Length="40" SASFieldName="CMDOSRGM" def:Label="Intended Dose Regimen"/>
            <ItemDef OID="IT.CM.CMROUTE" Name="CMROUTE" DataType="text" Length="40" SASFieldName="CMROUTE" def:Label="Route of Administration">
                <CodeListRef CodeListOID="CL.ROUTE"/>
            </ItemDef>
            <ItemDef OID="IT.CM.CMSTDTC" Name="CMSTDTC" DataType="datetime" SASFieldName="CMSTDTC" def:Label="Start Date/Time of Medication"/>
            <ItemDef OID="IT.CM.CMENDTC" Name="CMENDTC" DataType="datetime" SASFieldName="CMENDTC" def:Label="End Date/Time of Medication"/>
            <ItemDef OID="IT.CM.CMSTDY" Name="CMSTDY" DataType="integer" Length="8" SASFieldName="CMSTDY" def:Label="Study Day of Start of Medication"/>
            <ItemDef OID="IT.CM.CMENDY" Name="CMENDY" DataType="integer" Length="8" SASFieldName="CMENDY" def:Label="Study Day of End of Medication"/>
            <ItemDef OID="IT.CM.CMDUR" Name="CMDUR" DataType="text" Length="64" SASFieldName="CMDUR" def:Label="Duration of Medication"/>
            <ItemDef OID="IT.CM.CMSTRF" Name="CMSTRF" DataType="text" Length="20" SASFieldName="CMSTRF" def:Label="Start Relative to Reference Period">
                <CodeListRef CodeListOID="CL.STENRF"/>
            </ItemDef>
            <ItemDef OID="IT.CM.CMENRF" Name="CMENRF" DataType="text" Length="20" SASFieldName="CMENRF" def:Label="End Relative to Reference Period">
                <CodeListRef CodeListOID="CL.STENRF"/>
            </ItemDef>
            <ItemDef OID="IT.CM.CMSTRTPT" Name="CMSTRTPT" DataType="text" Length="40" SASFieldName="CMSTRTPT" def:Label="Start Relative to Reference Time Point"/>
            <ItemDef OID="IT.CM.CMSTTPT" Name="CMSTTPT" DataType="text" Length="40" SASFieldName="CMSTTPT" def:Label="Start Reference Time Point"/>
            <ItemDef OID="IT.CM.CMENRTPT" Name="CMENRTPT" DataType="text" Length="40" SASFieldName="CMENRTPT" def:Label="End Relative to Reference Time Point"/>
            <ItemDef OID="IT.CM.CMENTPT" Name="CMENTPT" DataType="text" Length="40" SASFieldName="CMENTPT" def:Label="End Reference Time Point"/>
            <ItemDef OID="IT.CO.STUDYID" Name="STUDYID" DataType="text" Length="40" SASFieldName="STUDYID" def:Label="Study Identifier"/>
            <ItemDef OID="IT.CO.DOMAIN" Name="DOMAIN" DataType="text" Length="8" SASFieldName="DOMAIN" def:Label="Domain Abbreviation"/>
            <ItemDef OID="IT.CO.RDOMAIN" Name="RDOMAIN" DataType="text" Length="8" SASFieldName="RDOMAIN" def:Label="Related Domain Abbreviation"/>
            <ItemDef OID="IT.CO.USUBJID" Name="USUBJID" DataType="text" Length="40" SASFieldName="USUBJID" def:Label="Unique Subject Identifier"/>
            <ItemDef OID="IT.CO.COSEQ" Name="COSEQ" DataType="integer" Length="8" SASFieldName="COSEQ" def:Label="Sequence Number"/>
            <ItemDef OID="IT.CO.IDVAR" Name="IDVAR" DataType="text" Length="8" SASFieldName="IDVAR" def:Label="Identifying Variable"/>
            <ItemDef OID="IT.CO.IDVARVAL" Name="IDVARVAL" DataType="text" Length="40" SASFieldName="IDVARVAL" def:Label="Identifying Variable Value"/>
            <ItemDef OID="IT.CO.COREF" Name="COREF" DataType="text" Length="40" SASFieldName="COREF" def:Label="Comment Reference"/>
            <ItemDef OID="IT.CO.COVAL" Name="COVAL" DataType="text" Length="200" SASFieldName="COVAL" def:Label="Comment"/>
            <ItemDef OID="IT.CO.COEVAL" Name="COEVAL" DataType="text" Length="40" SASFieldName="COEVAL" def:Label="Evaluator"/>
            <ItemDef OID="IT.CO.CODTC" Name="CODTC" DataType="datetime" SASFieldName="CODTC" def:Label="Date/Time of Comment"/>
            <ItemDef OID="IT.DA.STUDYID" Name="STUDYID" DataType="text" Length="40" SASFieldName="STUDYID" def:Label="Study Identifier"/>
            <ItemDef OID="IT.DA.DOMAIN" Name="DOMAIN" DataType="text" Length="8" SASFieldName="DOMAIN" def:Label="Domain Abbreviation"/>
            <ItemDef OID="IT.DA.USUBJID" Name="USUBJID" DataType="text" Length="40" SASFieldName="USUBJID" def:Label="Unique Subject Identifier"/>
            <ItemDef OID="IT.DA.DASEQ" Name="DASEQ" DataType="integer" Length="8" SASFieldName="DASEQ" def:Label="Sequence Number"/>
            <ItemDef OID="IT.DA.DASPID" Name="DASPID" DataType="text" Length="40" SASFieldName="DASPID" def:Label="Sponsor-Defined Identifier"/>
            <ItemDef OID="IT.DA.DATESTCD" Name="DATESTCD" DataType="text" Length="8" SASFieldName="DATESTCD" def:Label="Short Name of Accountability Assessment"/>
            <ItemDef OID="IT.DA.DATEST" Name="DATEST" DataType="text" Length="40" SASFieldName="DATEST" def:Label="Name of Accountability Assessment"/>
            <ItemDef OID="IT.DA.DACAT" Name="DACAT" DataType="text" Length="40" SASFieldName="DACAT" def:Label="Category of Assessment"/>
            <ItemDef OID="IT.DA.DASCAT" Name="DASCAT" DataType="text" Length="40" SASFieldName="DASCAT" def:Label="Subcategory of Assessment"/>
            <ItemDef OID="IT.DA.DAORRES" Name="DAORRES" DataType="text" Length="200" SASFieldName="DAORRES" def:Label="Assessment Result in Original Units"/>
            <ItemDef OID="IT.DA.DAORRESU" Name="DAORRESU" DataType="text" Length="40" SASFieldName="DAORRESU" def:Label="Original Units">
                <CodeListRef CodeListOID="CL.UNIT"/>
            </ItemDef>
            <ItemDef OID="IT.DA.DASTRESC" Name="DASTRESC" DataType="text" Length="200" SASFieldName="DASTRESC" def:Label="Assessment Result in Std Format"/>
            <ItemDef OID="IT.DA.DASTRESN" Name="DASTRESN" DataType="float" Length="8" SignificantDigits="3" SASFieldName="DASTRESN" def:Label="Numeric Result/Finding in Standard Units" def:DisplayFormat="8.3"/>
            <ItemDef OID="IT.DA.DASTRESU" Name="DASTRESU" DataType="text" Length="40" SASFieldName="DASTRESU" def:Label="Assessment Standard Units">
                <CodeListRef CodeListOID="CL.UNIT"/>
            </ItemDef>
            <ItemDef OID="IT.DA.VISITNUM" Name="VISITNUM" DataType="float" Length="8" SignificantDigits="1" SASFieldName="VISITNUM" def:Label="Visit Number" def:DisplayFormat="8.1"/>
            <ItemDef OID="IT.DA.DADTC" Name="DADTC" DataType="datetime" SASFieldName="DADTC" def:Label="Date/Time of Accountability Assessment"/>
            <ItemDef OID="IT.DM.STUDYID" Name="STUDYID" DataType="text" Length="40" SASFieldName="STUDYID" def:Label="Study Identifier"/>
            <ItemDef OID="IT.DM.DOMAIN" Name="DOMAIN" DataType="text" Length="8" SASFieldName="DOMAIN" def:Label="Domain Abbreviation"/>
            <ItemDef OID="IT.DM.USUBJID" Name="USUBJID" DataType="text" Length="40" SASFieldName="USUBJID" def:Label="Unique Subject Identifier"/>
            <ItemDef OID="IT.DM.SUBJID" Name="SUBJID" DataType="text" Length="40" SASFieldName="SUBJID" def:Label="Subject Identifier for the Study"/>
            <ItemDef OID="IT.DM.RFSTDTC" Name="RFSTDTC" DataType="datetime" SASFieldName="RFSTDTC" def:Label="Subject Reference Start Date/Time"/>
            <ItemDef OID="IT.DM.RFENDTC" Name="RFENDTC" DataType="datetime" SASFieldName="RFENDTC" def:Label="Subject Reference End Date/Time"/>
            <ItemDef OID="IT.DM.RFXSTDTC" Name="RFXSTDTC" DataType="datetime" SASFieldName="RFXSTDTC" def:Label="Date/Time of First Study Treatment"/>
            <ItemDef OID="IT.DM.RFXENDTC" Name="RFXENDTC" DataType="datetime" SASFieldName="RFXENDTC" def:Label="Date/Time of Last Study Treatment"/>
            <ItemDef OID="IT.DM.RFICDTC" Name="RFICDTC" DataType="datetime" SASFieldName="RFICDTC" def:Label="Date/Time of Informed Consent"/>
            <ItemDef OID="IT.DM.RFPENDTC" Name="RFPENDTC" DataType="datetime" SASFieldName="RFPENDTC" def:Label="Date/Time of End of Participation"/>
            <ItemDef OID="IT.DM.DTHDTC" Name="DTHDTC" DataType="datetime" SASFieldName="DTHDTC" def:Label="Date/Time of Death"/>
            <ItemDef OID="IT.DM.DTHFL" Name="DTHFL" DataType="text" Length="2" SASFieldName="DTHFL" def:Label="Subject Death Flag">
                <CodeListRef CodeListOID="CL.NY"/>
            </ItemDef>
            <ItemDef OID="IT.DM.SITEID" Name="SITEID" DataType="text" Length="40" SASFieldName="SITEID" def:Label="Study Site Identifier"/>
            <ItemDef OID="IT.DM.INVID" Name="INVID" DataType="text" Length="40" SASFieldName="INVID" def:Label="Investigator Identifier"/>
            <ItemDef OID="IT.DM.INVNAM" Name="INVNAM" DataType="text" Length="40" SASFieldName="INVNAM" def:Label="Investigator Name"/>
            <ItemDef OID="IT.DM.BRTHDTC" Name="BRTHDTC" DataType="datetime" SASFieldName="BRTHDTC" def:Label="Date/Time of Birth"/>
            <ItemDef OID="IT.DM.AGE" Name="AGE" DataType="float" Length="8" SignificantDigits="1" SASFieldName="AGE" def:Label="Age" def:DisplayFormat="8.1"/>
            <ItemDef OID="IT.DM.AGEU" Name="AGEU" DataType="text" Length="10" SASFieldName="AGEU" def:Label="Age Units">
                <CodeListRef CodeListOID="CL.AGEU"/>
            </ItemDef>
            <ItemDef OID="IT.DM.SEX" Name="SEX" DataType="text" Length="2" SASFieldName="SEX" def:Label="Sex">
                <CodeListRef CodeListOID="CL.SEX"/>
            </ItemDef>
            <ItemDef OID="IT.DM.RACE" Name="RACE" DataType="text" Length="80" SASFieldName="RACE" def:Label="Race">
                <CodeListRef CodeListOID="CL.RACE"/>
            </ItemDef>
            <ItemDef OID="IT.DM.ETHNIC" Name="ETHNIC" DataType="text" Length="40" SASFieldName="ETHNIC" def:Label="Ethnicity">
                <CodeListRef CodeListOID="CL.ETHNIC"/>
            </ItemDef>
            <ItemDef OID="IT.DM.ARMCD" Name="ARMCD" DataType="text" Length="20" SASFieldName="ARMCD" def:Label="Planned Arm Code"/>
            <ItemDef OID="IT.DM.ARM" Name="ARM" DataType="text" Length="40" SASFieldName="ARM" def:Label="Description of Planned Arm"/>
            <ItemDef OID="IT.DM.ACTARMCD" Name="ACTARMCD" DataType="text" Length="20" SASFieldName="ACTARMCD" def:Label="Actual Arm Code"/>
            <ItemDef OID="IT.DM.ACTARM" Name="ACTARM" DataType="text" Length="40" SASFieldName="ACTARM" def:Label="Description of Actual Arm"/>
            <ItemDef OID="IT.DM.COUNTRY" Name="COUNTRY" DataType="text" Length="3" SASFieldName="COUNTRY" def:Label="Country">
                <CodeListRef CodeListOID="CL.COUNTRY"/>
            </ItemDef>
            <ItemDef OID="IT.DM.DMDTC" Name="DMDTC" DataType="datetime" SASFieldName="DMDTC" def:Label="Date/Time of Collection"/>
            <ItemDef OID="IT.DM.DMDY" Name="DMDY" DataType="integer" Length="8" SASFieldName="DMDY" def:Label="Study Day of Collection"/>
            <ItemDef OID="IT.DS.STUDYID" Name="STUDYID" DataType="text" Length="40" SASFieldName="STUDYID" def:Label="Study Identifier"/>
            <ItemDef OID="IT.DS.DOMAIN" Name="DOMAIN" DataType="text" Length="8" SASFieldName="DOMAIN" def:Label="Domain Abbreviation"/>
            <ItemDef OID="IT.DS.USUBJID" Name="USUBJID" DataType="text" Length="40" SASFieldName="USUBJID" def:Label="Unique Subject Identifier"/>
            <ItemDef OID="IT.DS.DSSEQ" Name="DSSEQ" DataType="integer" Length="8" SASFieldName="DSSEQ" def:Label="Sequence Number"/>
            <ItemDef OID="IT.DS.DSGRPID" Name="DSGRPID" DataType="text" Length="40" SASFieldName="DSGRPID" def:Label="Group ID"/>
            <ItemDef OID="IT.DS.DSREFID" Name="DSREFID" DataType="text" Length="40" SASFieldName="DSREFID" def:Label="Reference ID"/>
            <ItemDef OID="IT.DS.DSSPID" Name="DSSPID" DataType="text" Length="40" SASFieldName="DSSPID" def:Label="Sponsor-Defined Identifier"/>
            <ItemDef OID="IT.DS.DSTERM" Name="DSTERM" DataType="text" Length="200" SASFieldName="DSTERM" def:Label="Reported Term for the Disposition Event"/>
            <ItemDef OID="IT.DS.DSDECOD" Name="DSDECOD" DataType="text" Length="200" SASFieldName="DSDECOD" def:Label="Standardized Disposition Term">
                <CodeListRef CodeListOID="CL.NCOMPLT"/>
            </ItemDef>
            <ItemDef OID="IT.DS.DSCAT" Name="DSCAT" DataType="text" Length="40" SASFieldName="DSCAT" def:Label="Category for Disposition Event">
                <CodeListRef CodeListOID="CL.DSCAT"/>
            </ItemDef>
            <ItemDef OID="IT.DS.DSSCAT" Name="DSSCAT" DataType="text" Length="40" SASFieldName="DSSCAT" def:Label="Subcategory for Disposition Event"/>
            <ItemDef OID="IT.DS.EPOCH" Name="EPOCH" DataType="text" Length="40" SASFieldName="EPOCH" def:Label="Epoch"/>
            <ItemDef OID="IT.DS.DSDTC" Name="DSDTC" DataType="datetime" SASFieldName="DSDTC" def:Label="Date/Time of Collection"/>
            <ItemDef OID="IT.DS.DSSTDTC" Name="DSSTDTC" DataType="datetime" SASFieldName="DSSTDTC" def:Label="Start Date/Time of Disposition Event"/>
            <ItemDef OID="IT.DS.DSSTDY" Name="DSSTDY" DataType="integer" Length="8" SASFieldName="DSSTDY" def:Label="Study Day of Start of Disposition Event"/>
            <ItemDef OID="IT.DV.STUDYID" Name="STUDYID" DataType="text" Length="40" SASFieldName="STUDYID" def:Label="Study Identifier"/>
            <ItemDef OID="IT.DV.DOMAIN" Name="DOMAIN" DataType="text" Length="8" SASFieldName="DOMAIN" def:Label="Domain Abbreviation"/>
            <ItemDef OID="IT.DV.USUBJID" Name="USUBJID" DataType="text" Length="40" SASFieldName="USUBJID" def:Label="Unique Subject Identifier"/>
            <ItemDef OID="IT.DV.DVSEQ" Name="DVSEQ" DataType="integer" Length="8" SASFieldName="DVSEQ" def:Label="Sequence Number"/>
            <ItemDef OID="IT.DV.DVREFID" Name="DVREFID" DataType="text" Length="40" SASFieldName="DVREFID" def:Label="Reference ID"/>
            <ItemDef OID="IT.DV.DVSPID" Name="DVSPID" DataType="text" Length="40" SASFieldName="DVSPID" def:Label="Sponsor-Defined Identifier"/>
            <ItemDef OID="IT.DV.DVTERM" Name="DVTERM" DataType="text" Length="200" SASFieldName="DVTERM" def:Label="Protocol Deviation Term"/>
            <ItemDef OID="IT.DV.DVDECOD" Name="DVDECOD" DataType="text" Length="200" SASFieldName="DVDECOD" def:Label="Protocol Deviation Coded Term"/>
            <ItemDef OID="IT.DV.DVCAT" Name="DVCAT" DataType="text" Length="40" SASFieldName="DVCAT" def:Label="Category for Protocol Deviation"/>
            <ItemDef OID="IT.DV.DVSCAT" Name="DVSCAT" DataType="text" Length="40" SASFieldName="DVSCAT" def:Label="Subcategory for Protocol Deviation"/>
            <ItemDef OID="IT.DV.EPOCH" Name="EPOCH" DataType="text" Length="40" SASFieldName="EPOCH" def:Label="Epoch"/>
            <ItemDef OID="IT.DV.DVSTDTC" Name="DVSTDTC" DataType="datetime" SASFieldName="DVSTDTC" def:Label="Start Date/Time of Deviation"/>
            <ItemDef OID="IT.DV.DVENDTC" Name="DVENDTC" DataType="datetime" SASFieldName="DVENDTC" def:Label="End Date/Time of Deviation"/>
            <ItemDef OID="IT.EG.STUDYID" Name="STUDYID" DataType="text" Length="40" SASFieldName="STUDYID" def:Label="Study Identifier"/>
            <ItemDef OID="IT.EG.DOMAIN" Name="DOMAIN" DataType="text" Length="8" SASFieldName="DOMAIN" def:Label="Domain Abbreviation"/>
            <ItemDef OID="IT.EG.USUBJID" Name="USUBJID" DataType="text" Length="40" SASFieldName="USUBJID" def:Label="Unique Subject Identifier"/>
            <ItemDef OID="IT.EG.EGSEQ" Name="EGSEQ" DataType="integer" Length="8" SASFieldName="EGSEQ" def:Label="Sequence Number"/>
            <ItemDef OID="IT.EG.EGGRPID" Name="EGGRPID" DataType="text" Length="40" SASFieldName="EGGRPID" def:Label="Group ID"/>
            <ItemDef OID="IT.EG.EGREFID" Name="EGREFID" DataType="text" Length="40" SASFieldName="EGREFID" def:Label="ECG Reference ID"/>
            <ItemDef OID="IT.EG.EGSPID" Name="EGSPID" DataType="text" Length="40" SASFieldName="EGSPID" def:Label="Sponsor-Defined Identifier"/>
            <ItemDef OID="IT.EG.EGTESTCD" Name="EGTESTCD" DataType="text" Length="8" SASFieldName="EGTESTCD" def:Label="ECG Test or Examination Short Name">
                <CodeListRef CodeListOID="CL.EGTESTCD"/>
                <def:ValueListRef ValueListOID="VL.EG.EGTESTCD"/>
            </ItemDef>
            <ItemDef OID="IT.EG.EGTEST" Name="EGTEST" DataType="text" Length="40" SASFieldName="EGTEST" def:Label="ECG Test or Examination Name">
                <CodeListRef CodeListOID="CL.EGTEST"/>
            </ItemDef>
            <ItemDef OID="IT.EG.EGCAT" Name="EGCAT" DataType="text" Length="40" SASFieldName="EGCAT" def:Label="Category for ECG"/>
            <ItemDef OID="IT.EG.EGSCAT" Name="EGSCAT" DataType="text" Length="40" SASFieldName="EGSCAT" def:Label="Subcategory for ECG"/>
            <ItemDef OID="IT.EG.EGPOS" Name="EGPOS" DataType="text" Length="40" SASFieldName="EGPOS" def:Label="ECG Position of Subject">
                <CodeListRef CodeListOID="CL.POSITION"/>
            </ItemDef>
            <ItemDef OID="IT.EG.EGORRES" Name="EGORRES" DataType="text" Length="200" SASFieldName="EGORRES" def:Label="Result or Finding in Original Units"/>
            <ItemDef OID="IT.EG.EGORRESU" Name="EGORRESU" DataType="text" Length="40" SASFieldName="EGORRESU" def:Label="Original Units">
                <CodeListRef CodeListOID="CL.UNIT"/>
            </ItemDef>
            <ItemDef OID="IT.EG.EGSTRESC" Name="EGSTRESC" DataType="text" Length="200" SASFieldName="EGSTRESC" def:Label="Character Result/Finding in Std Format">
                <CodeListRef CodeListOID="CL.EGSTRESC"/>
            </ItemDef>
            <ItemDef OID="IT.EG.EGSTRESN" Name="EGSTRESN" DataType="float" Length="8" SignificantDigits="3" SASFieldName="EGSTRESN" def:Label="Numeric Result/Finding in Standard Units" def:DisplayFormat="8.3"/>
            <ItemDef OID="IT.EG.EGSTRESU" Name="EGSTRESU" DataType="text" Length="40" SASFieldName="EGSTRESU" def:Label="Standard Units">
                <CodeListRef CodeListOID="CL.UNIT"/>
            </ItemDef>
            <ItemDef OID="IT.EG.EGSTAT" Name="EGSTAT" DataType="text" Length="40" SASFieldName="EGSTAT" def:Label="Completion Status">
                <CodeListRef CodeListOID="CL.ND"/>
            </ItemDef>
            <ItemDef OID="IT.EG.EGREASND" Name="EGREASND" DataType="text" Length="200" SASFieldName="EGREASND" def:Label="Reason ECG Not Performed"/>
            <ItemDef OID="IT.EG.EGXFN" Name="EGXFN" DataType="text" Length="200" SASFieldName="EGXFN" def:Label="ECG External File Path"/>
            <ItemDef OID="IT.EG.EGNAM" Name="EGNAM" DataType="text" Length="40" SASFieldName="EGNAM" def:Label="Vendor Name"/>
            <ItemDef OID="IT.EG.EGLOC" Name="EGLOC" DataType="text" Length="40" SASFieldName="EGLOC" def:Label="Lead Location Used for Measurement">
                <CodeListRef CodeListOID="CL.LOC"/>
            </ItemDef>
            <ItemDef OID="IT.EG.EGMETHOD" Name="EGMETHOD" DataType="text" Length="80" SASFieldName="EGMETHOD" def:Label="Method of ECG Test">
                <CodeListRef CodeListOID="CL.EGMETHOD"/>
            </ItemDef>
            <ItemDef OID="IT.EG.EGBLFL" Name="EGBLFL" DataType="text" Length="2" SASFieldName="EGBLFL" def:Label="Baseline Flag">
                <CodeListRef CodeListOID="CL.NY"/>
            </ItemDef>
            <ItemDef OID="IT.EG.EGDRVFL" Name="EGDRVFL" DataType="text" Length="2" SASFieldName="EGDRVFL" def:Label="Derived Flag">
                <CodeListRef CodeListOID="CL.NY"/>
            </ItemDef>
            <ItemDef OID="IT.EG.EGEVAL" Name="EGEVAL" DataType="text" Length="40" SASFieldName="EGEVAL" def:Label="Evaluator"/>
            <ItemDef OID="IT.EG.VISITNUM" Name="VISITNUM" DataType="float" Length="8" SignificantDigits="1" SASFieldName="VISITNUM" def:Label="Visit Number" def:DisplayFormat="8.1"/>
            <ItemDef OID="IT.EG.VISIT" Name="VISIT" DataType="text" Length="40" SASFieldName="VISIT" def:Label="Visit Name"/>
            <ItemDef OID="IT.EG.VISITDY" Name="VISITDY" DataType="integer" Length="8" SASFieldName="VISITDY" def:Label="Planned Study Day of Visit"/>
            <ItemDef OID="IT.EG.EGDTC" Name="EGDTC" DataType="datetime" SASFieldName="EGDTC" def:Label="Date/Time of ECG"/>
            <ItemDef OID="IT.EG.EGDY" Name="EGDY" DataType="integer" Length="8" SASFieldName="EGDY" def:Label="Study Day of ECG"/>
            <ItemDef OID="IT.EG.EGTPT" Name="EGTPT" DataType="text" Length="40" SASFieldName="EGTPT" def:Label="Planned Time Point Name"/>
            <ItemDef OID="IT.EG.EGTPTNUM" Name="EGTPTNUM" DataType="float" Length="8" SignificantDigits="1" SASFieldName="EGTPTNUM" def:Label="Planned Time Point Number" def:DisplayFormat="8.1"/>
            <ItemDef OID="IT.EG.EGELTM" Name="EGELTM" DataType="text" Length="64" SASFieldName="EGELTM" def:Label="Planned Elapsed Time from Time Point Ref"/>
            <ItemDef OID="IT.EG.EGTPTREF" Name="EGTPTREF" DataType="text" Length="40" SASFieldName="EGTPTREF" def:Label="Time Point Reference"/>
            <ItemDef OID="IT.EG.EGRFTDTC" Name="EGRFTDTC" DataType="datetime" SASFieldName="EGRFTDTC" def:Label="Date/Time of Reference Time Point"/>
            <ItemDef OID="IT.EX.STUDYID" Name="STUDYID" DataType="text" Length="40" SASFieldName="STUDYID" def:Label="Study Identifier"/>
            <ItemDef OID="IT.EX.DOMAIN" Name="DOMAIN" DataType="text" Length="8" SASFieldName="DOMAIN" def:Label="Domain Abbreviation"/>
            <ItemDef OID="IT.EX.USUBJID" Name="USUBJID" DataType="text" Length="40" SASFieldName="USUBJID" def:Label="Unique Subject Identifier"/>
            <ItemDef OID="IT.EX.EXSEQ" Name="EXSEQ" DataType="integer" Length="8" SASFieldName="EXSEQ" def:Label="Sequence Number"/>
            <ItemDef OID="IT.EX.EXGRPID" Name="EXGRPID" DataType="text" Length="40" SASFieldName="EXGRPID" def:Label="Group ID"/>
            <ItemDef OID="IT.EX.EXSPID" Name="EXSPID" DataType="text" Length="40" SASFieldName="EXSPID" def:Label="Sponsor-Defined Identifier"/>
            <ItemDef OID="IT.EX.EXTRT" Name="EXTRT" DataType="text" Length="200" SASFieldName="EXTRT" def:Label="Name of Actual Treatment"/>
            <ItemDef OID="IT.EX.EXCAT" Name="EXCAT" DataType="text" Length="40" SASFieldName="EXCAT" def:Label="Category for Treatment"/>
            <ItemDef OID="IT.EX.EXSCAT" Name="EXSCAT" DataType="text" Length="40" SASFieldName="EXSCAT" def:Label="Subcategory for Treatment"/>
            <ItemDef OID="IT.EX.EXDOSE" Name="EXDOSE" DataType="float" Length="8" SignificantDigits="3" SASFieldName="EXDOSE" def:Label="Dose per Administration" def:DisplayFormat="8.3"/>
            <ItemDef OID="IT.EX.EXDOSTXT" Name="EXDOSTXT" DataType="text" Length="200" SASFieldName="EXDOSTXT" def:Label="Dose Description"/>
            <ItemDef OID="IT.EX.EXDOSU" Name="EXDOSU" DataType="text" Length="40" SASFieldName="EXDOSU" def:Label="Dose Units">
                <CodeListRef CodeListOID="CL.UNIT"/>
            </ItemDef>
            <ItemDef OID="IT.EX.EXDOSFRM" Name="EXDOSFRM" DataType="text" Length="80" SASFieldName="EXDOSFRM" def:Label="Dose Form">
                <CodeListRef CodeListOID="CL.FRM"/>
            </ItemDef>
            <ItemDef OID="IT.EX.EXDOSFRQ" Name="EXDOSFRQ" DataType="text" Length="40" SASFieldName="EXDOSFRQ" def:Label="Dosing Frequency per Interval">
                <CodeListRef CodeListOID="CL.FREQ"/>
            </ItemDef>
            <ItemDef OID="IT.EX.EXDOSTOT" Name="EXDOSTOT" DataType="float" Length="8" SignificantDigits="3" SASFieldName="EXDOSTOT" def:Label="Total Daily Dose" def:DisplayFormat="8.3"/>
            <ItemDef OID="IT.EX.EXDOSRGM" Name="EXDOSRGM" DataType="text" Length="40" SASFieldName="EXDOSRGM" def:Label="Intended Dose Regimen"/>
            <ItemDef OID="IT.EX.EXROUTE" Name="EXROUTE" DataType="text" Length="40" SASFieldName="EXROUTE" def:Label="Route of Administration">
                <CodeListRef CodeListOID="CL.ROUTE"/>
            </ItemDef>
            <ItemDef OID="IT.EX.EXLOT" Name="EXLOT" DataType="text" Length="40" SASFieldName="EXLOT" def:Label="Lot Number"/>
            <ItemDef OID="IT.EX.EXLOC" Name="EXLOC" DataType="text" Length="40" SASFieldName="EXLOC" def:Label="Location of Dose Administration">
                <CodeListRef CodeListOID="CL.LOC"/>
            </ItemDef>
            <ItemDef OID="IT.EX.EXTRTV" Name="EXTRTV" DataType="text" Length="40" SASFieldName="EXTRTV" def:Label="Treatment Vehicle"/>
            <ItemDef OID="IT.EX.EXVAMT" Name="EXVAMT" DataType="integer" Length="8" SASFieldName="EXVAMT" def:Label="Treatment Vehicle Amount"/>
            <ItemDef OID="IT.EX.EXVAMTU" Name="EXVAMTU" DataType="text" Length="40" SASFieldName="EXVAMTU" def:Label="Treatment Vehicle Amount Units">
                <CodeListRef CodeListOID="CL.UNIT"/>
            </ItemDef>
            <ItemDef OID="IT.EX.EXADJ" Name="EXADJ" DataType="text" Length="200" SASFieldName="EXADJ" def:Label="Reason for Dose Adjustment"/>
            <ItemDef OID="IT.EX.TAETORD" Name="TAETORD" DataType="integer" Length="8" SASFieldName="TAETORD" def:Label="Planned Order of Element within Arm"/>
            <ItemDef OID="IT.EX.EPOCH" Name="EPOCH" DataType="text" Length="40" SASFieldName="EPOCH" def:Label="Epoch"/>
            <ItemDef OID="IT.EX.EXSTDTC" Name="EXSTDTC" DataType="datetime" SASFieldName="EXSTDTC" def:Label="Start Date/Time of Treatment"/>
            <ItemDef OID="IT.EX.EXENDTC" Name="EXENDTC" DataType="datetime" SASFieldName="EXENDTC" def:Label="End Date/Time of Treatment"/>
            <ItemDef OID="IT.EX.EXSTDY" Name="EXSTDY" DataType="integer" Length="8" SASFieldName="EXSTDY" def:Label="Study Day of Start of Treatment"/>
            <ItemDef OID="IT.EX.EXENDY" Name="EXENDY" DataType="integer" Length="8" SASFieldName="EXENDY" def:Label="Study Day of End of Treatment"/>
            <ItemDef OID="IT.EX.EXDUR" Name="EXDUR" DataType="text" Length="64" SASFieldName="EXDUR" def:Label="Duration of Treatment"/>
            <ItemDef OID="IT.EX.EXTPT" Name="EXTPT" DataType="text" Length="40" SASFieldName="EXTPT" def:Label="Planned Time Point Name"/>
            <ItemDef OID="IT.EX.EXTPTNUM" Name="EXTPTNUM" DataType="float" Length="8" SignificantDigits="1" SASFieldName="EXTPTNUM" def:Label="Planned Time Point Number" def:DisplayFormat="8.1"/>
            <ItemDef OID="IT.EX.EXELTM" Name="EXELTM" DataType="text" Length="64" SASFieldName="EXELTM" def:Label="Planned Elapsed Time from Time Point Ref"/>
            <ItemDef OID="IT.EX.EXTPTREF" Name="EXTPTREF" DataType="text" Length="40" SASFieldName="EXTPTREF" def:Label="Time Point Reference"/>
            <ItemDef OID="IT.FA.STUDYID" Name="STUDYID" DataType="text" Length="40" SASFieldName="STUDYID" def:Label="Study Identifier"/>
            <ItemDef OID="IT.FA.DOMAIN" Name="DOMAIN" DataType="text" Length="8" SASFieldName="DOMAIN" def:Label="Domain Abbreviation"/>
            <ItemDef OID="IT.FA.USUBJID" Name="USUBJID" DataType="text" Length="40" SASFieldName="USUBJID" def:Label="Unique Subject Identifier"/>
            <ItemDef OID="IT.FA.FASEQ" Name="FASEQ" DataType="integer" Length="8" SASFieldName="FASEQ" def:Label="Sequence Number"/>
            <ItemDef OID="IT.FA.FATESTCD" Name="FATESTCD" DataType="text" Length="8" SASFieldName="FATESTCD" def:Label="Findings About Test Short Name"/>
            <ItemDef OID="IT.FA.FATEST" Name="FATEST" DataType="text" Length="40" SASFieldName="FATEST" def:Label="Findings About Test Name"/>
            <ItemDef OID="IT.FA.FAOBJ" Name="FAOBJ" DataType="text" Length="200" SASFieldName="FAOBJ" def:Label="Object of the Observation"/>
            <ItemDef OID="IT.FA.FACAT" Name="FACAT" DataType="text" Length="40" SASFieldName="FACAT" def:Label="Category for Findings About"/>
            <ItemDef OID="IT.FA.FAORRES" Name="FAORRES" DataType="text" Length="200" SASFieldName="FAORRES" def:Label="Result or Finding in Original Units"/>
            <ItemDef OID="IT.FA.FASTRESC" Name="FASTRESC" DataType="text" Length="200" SASFieldName="FASTRESC" def:Label="Character Result/Finding in Std Format"/>
            <ItemDef OID="IT.FA.VISITNUM" Name="VISITNUM" DataType="float" Length="8" SignificantDigits="1" SASFieldName="VISITNUM" def:Label="Visit Number" def:DisplayFormat="8.1"/>
            <ItemDef OID="IT.FA.FADTC" Name="FADTC" DataType="datetime" SASFieldName="FADTC" def:Label="Date/Time of Collection"/>
            <ItemDef OID="IT.IE.STUDYID" Name="STUDYID" DataType="text" Length="40" SASFieldName="STUDYID" def:Label="Study Identifier"/>
            <ItemDef OID="IT.IE.DOMAIN" Name="DOMAIN" DataType="text" Length="8" SASFieldName="DOMAIN" def:Label="Domain Abbreviation"/>
            <ItemDef OID="IT.IE.USUBJID" Name="USUBJID" DataType="text" Length="40" SASFieldName="USUBJID" def:Label="Unique Subject Identifier"/>
            <ItemDef OID="IT.IE.IESEQ" Name="IESEQ" DataType="integer" Length="8" SASFieldName="IESEQ" def:Label="Sequence Number"/>
            <ItemDef OID="IT.IE.IESPID" Name="IESPID" DataType="text" Length="40" SASFieldName="IESPID" def:Label="Sponsor-Defined Identifier"/>
            <ItemDef OID="IT.IE.IETESTCD" Name="IETESTCD" DataType="text" Length="8" SASFieldName="IETESTCD" def:Label="Inclusion/Exclusion Criterion Short Name">
                <def:ValueListRef ValueListOID="VL.IE.IETESTCD"/>
            </ItemDef>
            <ItemDef OID="IT.IE.IETEST" Name="IETEST" DataType="text" Length="200" SASFieldName="IETEST" def:Label="Inclusion/Exclusion Criterion"/>
            <ItemDef OID="IT.IE.IECAT" Name="IECAT" DataType="text" Length="40" SASFieldName="IECAT" def:Label="Inclusion/Exclusion Category">
                <CodeListRef CodeListOID="CL.IECAT"/>
            </ItemDef>
            <ItemDef OID="IT.IE.IESCAT" Name="IESCAT" DataType="text" Length="40" SASFieldName="IESCAT" def:Label="Inclusion/Exclusion Subcategory"/>
            <ItemDef OID="IT.IE.IEORRES" Name="IEORRES" DataType="text" Length="2" SASFieldName="IEORRES" def:Label="I/E Criterion Original Result">
                <CodeListRef CodeListOID="CL.NY"/>
            </ItemDef>
            <ItemDef OID="IT.IE.IESTRESC" Name="IESTRESC" DataType="text" Length="2" SASFieldName="IESTRESC" def:Label="I/E Criterion Result in Std Format">
                <CodeListRef CodeListOID="CL.NY"/>
            </ItemDef>
            <ItemDef OID="IT.IE.VISITNUM" Name="VISITNUM" DataType="float" Length="8" SignificantDigits="1" SASFieldName="VISITNUM" def:Label="Visit Number" def:DisplayFormat="8.1"/>
            <ItemDef OID="IT.IE.VISIT" Name="VISIT" DataType="text" Length="40" SASFieldName="VISIT" def:Label="Visit Name"/>
            <ItemDef OID="IT.IE.VISITDY" Name="VISITDY" DataType="integer" Length="8" SASFieldName="VISITDY" def:Label="Planned Study Day of Visit"/>
            <ItemDef OID="IT.IE.IEDTC" Name="IEDTC" DataType="datetime" SASFieldName="IEDTC" def:Label="Date/Time of Collection"/>
            <ItemDef OID="IT.IE.IEDY" Name="IEDY" DataType="integer" Length="8" SASFieldName="IEDY" def:Label="Study Day of Collection"/>
            <ItemDef OID="IT.LB.STUDYID" Name="STUDYID" DataType="text" Length="40" SASFieldName="STUDYID" def:Label="Study Identifier"/>
            <ItemDef OID="IT.LB.DOMAIN" Name="DOMAIN" DataType="text" Length="8" SASFieldName="DOMAIN" def:Label="Domain Abbreviation"/>
            <ItemDef OID="IT.LB.USUBJID" Name="USUBJID" DataType="text" Length="40" SASFieldName="USUBJID" def:Label="Unique Subject Identifier"/>
            <ItemDef OID="IT.LB.LBSEQ" Name="LBSEQ" DataType="integer" Length="8" SASFieldName="LBSEQ" def:Label="Sequence Number"/>
            <ItemDef OID="IT.LB.LBGRPID" Name="LBGRPID" DataType="text" Length="40" SASFieldName="LBGRPID" def:Label="Group ID"/>
            <ItemDef OID="IT.LB.LBREFID" Name="LBREFID" DataType="text" Length="40" SASFieldName="LBREFID" def:Label="Specimen ID"/>
            <ItemDef OID="IT.LB.LBSPID" Name="LBSPID" DataType="text" Length="40" SASFieldName="LBSPID" def:Label="Sponsor-Defined Identifier"/>
            <ItemDef OID="IT.LB.LBTESTCD" Name="LBTESTCD" DataType="text" Length="8" SASFieldName="LBTESTCD" def:Label="Lab Test or Examination Short Name">
                <CodeListRef CodeListOID="CL.LBTESTCD"/>
                <def:ValueListRef ValueListOID="VL.LB.LBTESTCD"/>
            </ItemDef>
            <ItemDef OID="IT.LB.LBTEST" Name="LBTEST" DataType="text" Length="40" SASFieldName="LBTEST" def:Label="Lab Test or Examination Name">
                <CodeListRef CodeListOID="CL.LBTEST"/>
            </ItemDef>
            <ItemDef OID="IT.LB.LBCAT" Name="LBCAT" DataType="text" Length="40" SASFieldName="LBCAT" def:Label="Category for Lab Test"/>
            <ItemDef OID="IT.LB.LBSCAT" Name="LBSCAT" DataType="text" Length="40" SASFieldName="LBSCAT" def:Label="Subcategory for Lab Test"/>
            <ItemDef OID="IT.LB.LBORRES" Name="LBORRES" DataType="text" Length="200" SASFieldName="LBORRES" def:Label="Result or Finding in Original Units"/>
            <ItemDef OID="IT.LB.LBORRESU" Name="LBORRESU" DataType="text" Length="40" SASFieldName="LBORRESU" def:Label="Original Units">
                <CodeListRef CodeListOID="CL.UNIT"/>
            </ItemDef>
            <ItemDef OID="IT.LB.LBORNRLO" Name="LBORNRLO" DataType="text" Length="40" SASFieldName="LBORNRLO" def:Label="Reference Range Lower Limit in Orig Unit"/>
            <ItemDef OID="IT.LB.LBORNRHI" Name="LBORNRHI" DataType="text" Length="40" SASFieldName="LBORNRHI" def:Label="Reference Range Upper Limit in Orig Unit"/>
            <ItemDef OID="IT.LB.LBSTRESC" Name="LBSTRESC" DataType="text" Length="200" SASFieldName="LBSTRESC" def:Label="Character Result/Finding in Std Format"/>
            <ItemDef OID="IT.LB.LBSTRESN" Name="LBSTRESN" DataType="float" Length="8" SignificantDigits="3" SASFieldName="LBSTRESN" def:Label="Numeric Result/Finding in Standard Units" def:DisplayFormat="8.3"/>
            <ItemDef OID="IT.LB.LBSTRESU" Name="LBSTRESU" DataType="text" Length="40" SASFieldName="LBSTRESU" def:Label="Standard Units">
                <CodeListRef CodeListOID="CL.UNIT"/>
            </ItemDef>
            <ItemDef OID="IT.LB.LBSTNRLO" Name="LBSTNRLO" DataType="float" Length="8" SignificantDigits="3" SASFieldName="LBSTNRLO" def:Label="Reference Range Lower Limit-Std Units" def:DisplayFormat="8.3"/>
            <ItemDef OID="IT.LB.LBSTNRHI" Name="LBSTNRHI" DataType="float" Length="8" SignificantDigits="3" SASFieldName="LBSTNRHI" def:Label="Reference Range Upper Limit-Std Units" def:DisplayFormat="8.3"/>
            <ItemDef OID="IT.LB.LBSTNRC" Name="LBSTNRC" DataType="text" Length="40" SASFieldName="LBSTNRC" def:Label="Reference Range for Char Rslt-Std Units"/>
            <ItemDef OID="IT.LB.LBNRIND" Name="LBNRIND" DataType="text" Length="20" SASFieldName="LBNRIND" def:Label="Reference Range Indicator"/>
            <ItemDef OID="IT.LB.LBSTAT" Name="LBSTAT" DataType="text" Length="40" SASFieldName="LBSTAT" def:Label="Completion Status">
                <CodeListRef CodeListOID="CL.ND"/>
            </ItemDef>
            <ItemDef OID="IT.LB.LBREASND" Name="LBREASND" DataType="text" Length="200" SASFieldName="LBREASND" def:Label="Reason Test Not Done"/>
            <ItemDef OID="IT.LB.LBNAM" Name="LBNAM" DataType="text" Length="40" SASFieldName="LBNAM" def:Label="Vendor Name"/>
            <ItemDef OID="IT.LB.LBLOINC" Name="LBLOINC" DataType="text" Length="200" SASFieldName="LBLOINC" def:Label="LOINC Code"/>
            <ItemDef OID="IT.LB.LBSPEC" Name="LBSPEC" DataType="text" Length="20" SASFieldName="LBSPEC" def:Label="Specimen Type"/>
            <ItemDef OID="IT.LB.LBSPCCND" Name="LBSPCCND" DataType="text" Length="40" SASFieldName="LBSPCCND" def:Label="Specimen Condition"/>
            <ItemDef OID="IT.LB.LBMETHOD" Name="LBMETHOD" DataType="text" Length="80" SASFieldName="LBMETHOD" def:Label="Method of Test or Examination"/>
            <ItemDef OID="IT.LB.LBBLFL" Name="LBBLFL" DataType="text" Length="2" SASFieldName="LBBLFL" def:Label="Baseline Flag">
                <CodeListRef CodeListOID="CL.NY"/>
            </ItemDef>
            <ItemDef OID="IT.LB.LBFAST" Name="LBFAST" DataType="text" Length="2" SASFieldName="LBFAST" def:Label="Fasting Status">
                <CodeListRef CodeListOID="CL.NY"/>
            </ItemDef>
            <ItemDef OID="IT.LB.LBDRVFL" Name="LBDRVFL" DataType="text" Length="2" SASFieldName="LBDRVFL" def:Label="Derived Flag">
                <CodeListRef CodeListOID="CL.NY"/>
            </ItemDef>
            <ItemDef OID="IT.LB.LBTOX" Name="LBTOX" DataType="text" Length="40" SASFieldName="LBTOX" def:Label="Toxicity"/>
            <ItemDef OID="IT.LB.LBTOXGR" Name="LBTOXGR" DataType="text" Length="20" SASFieldName="LBTOXGR" def:Label="Standard Toxicity Grade"/>
            <ItemDef OID="IT.LB.VISITNUM" Name="VISITNUM" DataType="float" Length="8" SignificantDigits="1" SASFieldName="VISITNUM" def:Label="Visit Number" def:DisplayFormat="8.1"/>
            <ItemDef OID="IT.LB.VISIT" Name="VISIT" DataType="text" Length="40" SASFieldName="VISIT" def:Label="Visit Name"/>
            <ItemDef OID="IT.LB.VISITDY" Name="VISITDY" DataType="integer" Length="8" SASFieldName="VISITDY" def:Label="Planned Study Day of Visit"/>
            <ItemDef OID="IT.LB.LBDTC" Name="LBDTC" DataType="datetime" SASFieldName="LBDTC" def:Label="Date/Time of Specimen Collection"/>
            <ItemDef OID="IT.LB.LBENDTC" Name="LBENDTC" DataType="datetime" SASFieldName="LBENDTC" def:Label="End Date/Time of Specimen Collection"/>
            <ItemDef OID="IT.LB.LBDY" Name="LBDY" DataType="integer" Length="8" SASFieldName="LBDY" def:Label="Study Day of Specimen Collection"/>
            <ItemDef OID="IT.LB.LBTPT" Name="LBTPT" DataType="text" Length="40" SASFieldName="LBTPT" def:Label="Planned Time Point Name"/>
            <ItemDef OID="IT.LB.LBTPTNUM" Name="LBTPTNUM" DataType="float" Length="8" SignificantDigits="1" SASFieldName="LBTPTNUM" def:Label="Planned Time Point Number" def:DisplayFormat="8.1"/>
            <ItemDef OID="IT.LB.LBELTM" Name="LBELTM" DataType="text" Length="64" SASFieldName="LBELTM" def:Label="Planned Elapsed Time from Time Point Ref"/>
            <ItemDef OID="IT.LB.LBTPTREF" Name="LBTPTREF" DataType="text" Length="40" SASFieldName="LBTPTREF" def:Label="Time Point Reference"/>
            <ItemDef OID="IT.LB.LBRFTDTC" Name="LBRFTDTC" DataType="datetime" SASFieldName="LBRFTDTC" def:Label="Date/Time of Reference Time Point"/>
            <ItemDef OID="IT.MB.STUDYID" Name="STUDYID" DataType="text" Length="40" SASFieldName="STUDYID" def:Label="Study Identifier"/>
            <ItemDef OID="IT.MB.DOMAIN" Name="DOMAIN" DataType="text" Length="8" SASFieldName="DOMAIN" def:Label="Domain Abbreviation"/>
            <ItemDef OID="IT.MB.USUBJID" Name="USUBJID" DataType="text" Length="40" SASFieldName="USUBJID" def:Label="Unique Subject Identifier"/>
            <ItemDef OID="IT.MB.MBSEQ" Name="MBSEQ" DataType="integer" Length="8" SASFieldName="MBSEQ" def:Label="Sequence Number"/>
            <ItemDef OID="IT.MB.MBGRPID" Name="MBGRPID" DataType="text" Length="40" SASFieldName="MBGRPID" def:Label="Group ID"/>
            <ItemDef OID="IT.MB.MBREFID" Name="MBREFID" DataType="text" Length="40" SASFieldName="MBREFID" def:Label="Reference ID"/>
            <ItemDef OID="IT.MB.MBSPID" Name="MBSPID" DataType="text" Length="40" SASFieldName="MBSPID" def:Label="Sponsor-Defined Identifier"/>
            <ItemDef OID="IT.MB.MBTESTCD" Name="MBTESTCD" DataType="text" Length="8" SASFieldName="MBTESTCD" def:Label="Microbiology Test or Finding Short Name"/>
            <ItemDef OID="IT.MB.MBTEST" Name="MBTEST" DataType="text" Length="40" SASFieldName="MBTEST" def:Label="Microbiology Test or Finding Name"/>
            <ItemDef OID="IT.MB.MBORRES" Name="MBORRES" DataType="text" Length="200" SASFieldName="MBORRES" def:Label="Result or Finding in Original Units"/>
            <ItemDef OID="IT.MB.MBSTRESC" Name="MBSTRESC" DataType="text" Length="200" SASFieldName="MBSTRESC" def:Label="Character Result/Finding in Std Format"/>
            <ItemDef OID="IT.MB.MBRESCAT" Name="MBRESCAT" DataType="text" Length="40" SASFieldName="MBRESCAT" def:Label="Result Category"/>
            <ItemDef OID="IT.MB.MBSPEC" Name="MBSPEC" DataType="text" Length="20" SASFieldName="MBSPEC" def:Label="Specimen Type"/>
            <ItemDef OID="IT.MB.MBSPCCND" Name="MBSPCCND" DataType="text" Length="40" SASFieldName="MBSPCCND" def:Label="Specimen Condition"/>
            <ItemDef OID="IT.MB.MBLOC" Name="MBLOC" DataType="text" Length="40" SASFieldName="MBLOC" def:Label="Specimen Collection Location">
                <CodeListRef CodeListOID="CL.LOC"/>
            </ItemDef>
            <ItemDef OID="IT.MB.MBMETHOD" Name="MBMETHOD" DataType="text" Length="80" SASFieldName="MBMETHOD" def:Label="Method of Test or Examination"/>
            <ItemDef OID="IT.MB.VISITNUM" Name="VISITNUM" DataType="float" Length="8" SignificantDigits="1" SASFieldName="VISITNUM" def:Label="Visit Number" def:DisplayFormat="8.1"/>
            <ItemDef OID="IT.MB.MBDTC" Name="MBDTC" DataType="datetime" SASFieldName="MBDTC" def:Label="Date/Time of Specimen Collection"/>
            <ItemDef OID="IT.MH.STUDYID" Name="STUDYID" DataType="text" Length="40" SASFieldName="STUDYID" def:Label="Study Identifier"/>
            <ItemDef OID="IT.MH.DOMAIN" Name="DOMAIN" DataType="text" Length="8" SASFieldName="DOMAIN" def:Label="Domain Abbreviation"/>
            <ItemDef OID="IT.MH.USUBJID" Name="USUBJID" DataType="text" Length="40" SASFieldName="USUBJID" def:Label="Unique Subject Identifier"/>
            <ItemDef OID="IT.MH.MHSEQ" Name="MHSEQ" DataType="integer" Length="8" SASFieldName="MHSEQ" def:Label="Sequence Number"/>
            <ItemDef OID="IT.MH.MHGRPID" Name="MHGRPID" DataType="text" Length="40" SASFieldName="MHGRPID" def:Label="Group ID"/>
            <ItemDef OID="IT.MH.MHREFID" Name="MHREFID" DataType="text" Length="40" SASFieldName="MHREFID" def:Label="Reference ID"/>
            <ItemDef OID="IT.MH.MHSPID" Name="MHSPID" DataType="text" Length="40" SASFieldName="MHSPID" def:Label="Sponsor-Defined Identifier"/>
            <ItemDef OID="IT.MH.MHTERM" Name="MHTERM" DataType="text" Length="200" SASFieldName="MHTERM" def:Label="Reported Term for the Medical History"/>
            <ItemDef OID="IT.MH.MHMODIFY" Name="MHMODIFY" DataType="text" Length="200" SASFieldName="MHMODIFY" def:Label="Modified Reported Term"/>
            <ItemDef OID="IT.MH.MHDECOD" Name="MHDECOD" DataType="text" Length="200" SASFieldName="MHDECOD" def:Label="Dictionary-Derived Term"/>
            <ItemDef OID="IT.MH.MHCAT" Name="MHCAT" DataType="text" Length="40" SASFieldName="MHCAT" def:Label="Category for Medical History"/>
            <ItemDef OID="IT.MH.MHSCAT" Name="MHSCAT" DataType="text" Length="40" SASFieldName="MHSCAT" def:Label="Subcategory for Medical History"/>
            <ItemDef OID="IT.MH.MHPRESP" Name="MHPRESP" DataType="text" Length="2" SASFieldName="MHPRESP" def:Label="Medical History Event Pre-Specified">
                <CodeListRef CodeListOID="CL.NY"/>
            </ItemDef>
            <ItemDef OID="IT.MH.MHOCCUR" Name="MHOCCUR" DataType="text" Length="2" SASFieldName="MHOCCUR" def:Label="Medical History Occurrence">
                <CodeListRef CodeListOID="CL.NY"/>
            </ItemDef>
            <ItemDef OID="IT.MH.MHSTAT" Name="MHSTAT" DataType="text" Length="40" SASFieldName="MHSTAT" def:Label="Completion Status">
                <CodeListRef CodeListOID="CL.ND"/>
            </ItemDef>
            <ItemDef OID="IT.MH.MHREASND" Name="MHREASND" DataType="text" Length="200" SASFieldName="MHREASND" def:Label="Reason Medical History Not Collected"/>
            <ItemDef OID="IT.MH.MHBODSYS" Name="MHBODSYS" DataType="text" Length="80" SASFieldName="MHBODSYS" def:Label="Body System or Organ Class"/>
            <ItemDef OID="IT.MH.MHDTC" Name="MHDTC" DataType="datetime" SASFieldName="MHDTC" def:Label="Date/Time of History Collection"/>
            <ItemDef OID="IT.MH.MHSTDTC" Name="MHSTDTC" DataType="datetime" SASFieldName="MHSTDTC" def:Label="Start Date/Time of Medical History Event"/>
            <ItemDef OID="IT.MH.MHENDTC" Name="MHENDTC" DataType="datetime" SASFieldName="MHENDTC" def:Label="End Date/Time of Medical History Event"/>
            <ItemDef OID="IT.MH.MHDY" Name="MHDY" DataType="integer" Length="8" SASFieldName="MHDY" def:Label="Study Day of History Collection"/>
            <ItemDef OID="IT.MH.MHENRF" Name="MHENRF" DataType="text" Length="20" SASFieldName="MHENRF" def:Label="End Relative to Reference Period">
                <CodeListRef CodeListOID="CL.STENRF"/>
            </ItemDef>
            <ItemDef OID="IT.MH.MHENRTPT" Name="MHENRTPT" DataType="text" Length="40" SASFieldName="MHENRTPT" def:Label="End Relative to Reference Time Point"/>
            <ItemDef OID="IT.MH.MHENTPT" Name="MHENTPT" DataType="text" Length="40" SASFieldName="MHENTPT" def:Label="End Reference Time Point"/>
            <ItemDef OID="IT.MS.STUDYID" Name="STUDYID" DataType="text" Length="40" SASFieldName="STUDYID" def:Label="Study Identifier"/>
            <ItemDef OID="IT.MS.DOMAIN" Name="DOMAIN" DataType="text" Length="8" SASFieldName="DOMAIN" def:Label="Domain Abbreviation"/>
            <ItemDef OID="IT.MS.USUBJID" Name="USUBJID" DataType="text" Length="40" SASFieldName="USUBJID" def:Label="Unique Subject Identifier"/>
            <ItemDef OID="IT.MS.MSSEQ" Name="MSSEQ" DataType="integer" Length="8" SASFieldName="MSSEQ" def:Label="Sequence Number"/>
            <ItemDef OID="IT.MS.MSGRPID" Name="MSGRPID" DataType="text" Length="40" SASFieldName="MSGRPID" def:Label="Group ID"/>
            <ItemDef OID="IT.MS.MSTESTCD" Name="MSTESTCD" DataType="text" Length="8" SASFieldName="MSTESTCD" def:Label="Microbiology Organism Finding Short Name"/>
            <ItemDef OID="IT.MS.MSTEST" Name="MSTEST" DataType="text" Length="40" SASFieldName="MSTEST" def:Label="Organism Test or Finding Name"/>
            <ItemDef OID="IT.MS.MSCAT" Name="MSCAT" DataType="text" Length="40" SASFieldName="MSCAT" def:Label="Category for Organism Findings"/>
            <ItemDef OID="IT.MS.MSORRES" Name="MSORRES" DataType="text" Length="200" SASFieldName="MSORRES" def:Label="Result or Finding in Original Units"/>
            <ItemDef OID="IT.MS.MSORRESU" Name="MSORRESU" DataType="text" Length="40" SASFieldName="MSORRESU" def:Label="Original Units">
                <CodeListRef CodeListOID="CL.UNIT"/>
            </ItemDef>
            <ItemDef OID="IT.MS.MSSTRESC" Name="MSSTRESC" DataType="text" Length="200" SASFieldName="MSSTRESC" def:Label="Character Result/Finding in Std Format"/>
            <ItemDef OID="IT.MS.MSSTRESN" Name="MSSTRESN" DataType="float" Length="8" SignificantDigits="3" SASFieldName="MSSTRESN" def:Label="Numeric Result/Finding in Standard Units" def:DisplayFormat="8.3"/>
            <ItemDef OID="IT.MS.MSSTRESU" Name="MSSTRESU" DataType="text" Length="40" SASFieldName="MSSTRESU" def:Label="Standard Units">
                <CodeListRef CodeListOID="CL.UNIT"/>
            </ItemDef>
            <ItemDef OID="IT.MS.MSRESCAT" Name="MSRESCAT" DataType="text" Length="40" SASFieldName="MSRESCAT" def:Label="Result Category"/>
            <ItemDef OID="IT.MS.MSMETHOD" Name="MSMETHOD" DataType="text" Length="80" SASFieldName="MSMETHOD" def:Label="Method of Test or Examination"/>
            <ItemDef OID="IT.MS.VISITNUM" Name="VISITNUM" DataType="float" Length="8" SignificantDigits="1" SASFieldName="VISITNUM" def:Label="Visit Number" def:DisplayFormat="8.1"/>
            <ItemDef OID="IT.PC.STUDYID" Name="STUDYID" DataType="text" Length="40" SASFieldName="STUDYID" def:Label="Study Identifier"/>
            <ItemDef OID="IT.PC.DOMAIN" Name="DOMAIN" DataType="text" Length="8" SASFieldName="DOMAIN" def:Label="Domain Abbreviation"/>
            <ItemDef OID="IT.PC.USUBJID" Name="USUBJID" DataType="text" Length="40" SASFieldName="USUBJID" def:Label="Unique Subject Identifier"/>
            <ItemDef OID="IT.PC.PCSEQ" Name="PCSEQ" DataType="integer" Length="8" SASFieldName="PCSEQ" def:Label="Sequence Number"/>
            <ItemDef OID="IT.PC.PCGRPID" Name="PCGRPID" DataType="text" Length="40" SASFieldName="PCGRPID" def:Label="Group ID"/>
            <ItemDef OID="IT.PC.PCREFID" Name="PCREFID" DataType="text" Length="40" SASFieldName="PCREFID" def:Label="Reference ID"/>
            <ItemDef OID="IT.PC.PCTESTCD" Name="PCTESTCD" DataType="text" Length="8" SASFieldName="PCTESTCD" def:Label="Pharmacokinetic Test Short Name"/>
            <ItemDef OID="IT.PC.PCTEST" Name="PCTEST" DataType="text" Length="40" SASFieldName="PCTEST" def:Label="Pharmacokinetic Test Name"/>
            <ItemDef OID="IT.PC.PCCAT" Name="PCCAT" DataType="text" Length="40" SASFieldName="PCCAT" def:Label="Test Category"/>
            <ItemDef OID="IT.PC.PCORRES" Name="PCORRES" DataType="text" Length="200" SASFieldName="PCORRES" def:Label="Result or Finding in Original Units"/>
            <ItemDef OID="IT.PC.PCORRESU" Name="PCORRESU" DataType="text" Length="40" SASFieldName="PCORRESU" def:Label="Original Units">
                <CodeListRef CodeListOID="CL.UNIT"/>
            </ItemDef>
            <ItemDef OID="IT.PC.PCSTRESC" Name="PCSTRESC" DataType="text" Length="200" SASFieldName="PCSTRESC" def:Label="Character Result/Finding in Std Format"/>
            <ItemDef OID="IT.PC.PCSTRESN" Name="PCSTRESN" DataType="float" Length="8" SignificantDigits="3" SASFieldName="PCSTRESN" def:Label="Numeric Result/Finding in Standard Units" def:DisplayFormat="8.3"/>
            <ItemDef OID="IT.PC.PCSTRESU" Name="PCSTRESU" DataType="text" Length="40" SASFieldName="PCSTRESU" def:Label="Standard Units">
                <CodeListRef CodeListOID="CL.UNIT"/>
            </ItemDef>
            <ItemDef OID="IT.PC.PCSTAT" Name="PCSTAT" DataType="text" Length="40" SASFieldName="PCSTAT" def:Label="Completion Status">
                <CodeListRef CodeListOID="CL.ND"/>
            </ItemDef>
            <ItemDef OID="IT.PC.PCSPEC" Name="PCSPEC" DataType="text" Length="20" SASFieldName="PCSPEC" def:Label="Specimen Material Type"/>
            <ItemDef OID="IT.PC.PCLLOQ" Name="PCLLOQ" DataType="integer" Length="8" SASFieldName="PCLLOQ" def:Label="Lower Limit of Quantitation"/>
            <ItemDef OID="IT.PC.VISITNUM" Name="VISITNUM" DataType="float" Length="8" SignificantDigits="1" SASFieldName="VISITNUM" def:Label="Visit Number" def:DisplayFormat="8.1"/>
            <ItemDef OID="IT.PC.VISIT" Name="VISIT" DataType="text" Length="40" SASFieldName="VISIT" def:Label="Visit Name"/>
            <ItemDef OID="IT.PC.VISITDY" Name="VISITDY" DataType="integer" Length="8" SASFieldName="VISITDY" def:Label="Planned Study Day of Visit"/>
            <ItemDef OID="IT.PC.PCDTC" Name="PCDTC" DataType="datetime" SASFieldName="PCDTC" def:Label="Date/Time of Specimen Collection"/>
            <ItemDef OID="IT.PC.PCENDTC" Name="PCENDTC" DataType="datetime" SASFieldName="PCENDTC" def:Label="End Date/Time of Specimen Collection"/>
            <ItemDef OID="IT.PC.PCDY" Name="PCDY" DataType="integer" Length="8" SASFieldName="PCDY" def:Label="Actual Study Day of Specimen Collection"/>
            <ItemDef OID="IT.PC.PCTPT" Name="PCTPT" DataType="text" Length="40" SASFieldName="PCTPT" def:Label="Planned Time Point Name"/>
            <ItemDef OID="IT.PC.PCTPTNUM" Name="PCTPTNUM" DataType="float" Length="8" SignificantDigits="1" SASFieldName="PCTPTNUM" def:Label="Planned Time Point Number" def:DisplayFormat="8.1"/>
            <ItemDef OID="IT.PC.PCELTM" Name="PCELTM" DataType="text" Length="64" SASFieldName="PCELTM" def:Label="Planned Elapsed Time from Time Point Ref"/>
            <ItemDef OID="IT.PC.PCTPTREF" Name="PCTPTREF" DataType="text" Length="40" SASFieldName="PCTPTREF" def:Label="Time Point Reference"/>
            <ItemDef OID="IT.PC.PCRFTDTC" Name="PCRFTDTC" DataType="datetime" SASFieldName="PCRFTDTC" def:Label="Date/Time of Reference Point"/>
            <ItemDef OID="IT.PC.PCEVLINT" Name="PCEVLINT" DataType="text" Length="64" SASFieldName="PCEVLINT" def:Label="Evaluation Interval"/>
            <ItemDef OID="IT.PE.STUDYID" Name="STUDYID" DataType="text" Length="40" SASFieldName="STUDYID" def:Label="Study Identifier"/>
            <ItemDef OID="IT.PE.DOMAIN" Name="DOMAIN" DataType="text" Length="8" SASFieldName="DOMAIN" def:Label="Domain Abbreviation"/>
            <ItemDef OID="IT.PE.USUBJID" Name="USUBJID" DataType="text" Length="40" SASFieldName="USUBJID" def:Label="Unique Subject Identifier"/>
            <ItemDef OID="IT.PE.PESEQ" Name="PESEQ" DataType="integer" Length="8" SASFieldName="PESEQ" def:Label="Sequence Number"/>
            <ItemDef OID="IT.PE.PEGRPID" Name="PEGRPID" DataType="text" Length="40" SASFieldName="PEGRPID" def:Label="Group ID"/>
            <ItemDef OID="IT.PE.PESPID" Name="PESPID" DataType="text" Length="40" SASFieldName="PESPID" def:Label="Sponsor-Defined Identifier"/>
            <ItemDef OID="IT.PE.PETESTCD" Name="PETESTCD" DataType="text" Length="8" SASFieldName="PETESTCD" def:Label="Body System Examined Short Name">
                <def:ValueListRef ValueListOID="VL.PE.PETESTCD"/>
            </ItemDef>
            <ItemDef OID="IT.PE.PETEST" Name="PETEST" DataType="text" Length="40" SASFieldName="PETEST" def:Label="Body System Examined"/>
            <ItemDef OID="IT.PE.PEMODIFY" Name="PEMODIFY" DataType="text" Length="200" SASFieldName="PEMODIFY" def:Label="Modified Reported Term"/>
            <ItemDef OID="IT.PE.PECAT" Name="PECAT" DataType="text" Length="40" SASFieldName="PECAT" def:Label="Category for Examination"/>
            <ItemDef OID="IT.PE.PESCAT" Name="PESCAT" DataType="text" Length="40" SASFieldName="PESCAT" def:Label="Subcategory for Examination"/>
            <ItemDef OID="IT.PE.PEBODSYS" Name="PEBODSYS" DataType="text" Length="80" SASFieldName="PEBODSYS" def:Label="Body System or Organ Class"/>
            <ItemDef OID="IT.PE.PEORRES" Name="PEORRES" DataType="text" Length="200" SASFieldName="PEORRES" def:Label="Verbatim Examination Finding"/>
            <ItemDef OID="IT.PE.PEORRESU" Name="PEORRESU" DataType="text" Length="40" SASFieldName="PEORRESU" def:Label="Original Units">
                <CodeListRef CodeListOID="CL.UNIT"/>
            </ItemDef>
            <ItemDef OID="IT.PE.PESTRESC" Name="PESTRESC" DataType="text" Length="200" SASFieldName="PESTRESC" def:Label="Character Result/Finding in Std Format"/>
            <ItemDef OID="IT.PE.PESTAT" Name="PESTAT" DataType="text" Length="40" SASFieldName="PESTAT" def:Label="Completion Status">
                <CodeListRef CodeListOID="CL.ND"/>
            </ItemDef>
            <ItemDef OID="IT.PE.PEREASND" Name="PEREASND" DataType="text" Length="200" SASFieldName="PEREASND" def:Label="Reason Not Examined"/>
            <ItemDef OID="IT.PE.PELOC" Name="PELOC" DataType="text" Length="40" SASFieldName="PELOC" def:Label="Location of Physical Exam Finding">
                <CodeListRef CodeListOID="CL.LOC"/>
            </ItemDef>
            <ItemDef OID="IT.PE.PEMETHOD" Name="PEMETHOD" DataType="text" Length="80" SASFieldName="PEMETHOD" def:Label="Method of Test or Examination"/>
            <ItemDef OID="IT.PE.PEEVAL" Name="PEEVAL" DataType="text" Length="40" SASFieldName="PEEVAL" def:Label="Evaluator"/>
            <ItemDef OID="IT.PE.VISITNUM" Name="VISITNUM" DataType="float" Length="8" SignificantDigits="1" SASFieldName="VISITNUM" def:Label="Visit Number" def:DisplayFormat="8.1"/>
            <ItemDef OID="IT.PE.VISIT" Name="VISIT" DataType="text" Length="40" SASFieldName="VISIT" def:Label="Visit Name"/>
            <ItemDef OID="IT.PE.VISITDY" Name="VISITDY" DataType="integer" Length="8" SASFieldName="VISITDY" def:Label="Planned Study Day of Visit"/>
            <ItemDef OID="IT.PE.PEDTC" Name="PEDTC" DataType="datetime" SASFieldName="PEDTC" def:Label="Date/Time of Examination"/>
            <ItemDef OID="IT.PE.PEDY" Name="PEDY" DataType="integer" Length="8" SASFieldName="PEDY" def:Label="Study Day of Examination"/>
            <ItemDef OID="IT.POOLDEF.STUDYID" Name="STUDYID" DataType="text" Length="40" SASFieldName="STUDYID" def:Label="Study Identifier"/>
            <ItemDef OID="IT.POOLDEF.POOLID" Name="POOLID" DataType="text" Length="40" SASFieldName="POOLID" def:Label="Pool Identifier"/>
            <ItemDef OID="IT.POOLDEF.USUBJID" Name="USUBJID" DataType="text" Length="40" SASFieldName="USUBJID" def:Label="Unique Subject Identifier"/>
            <ItemDef OID="IT.PP.STUDYID" Name="STUDYID" DataType="text" Length="40" SASFieldName="STUDYID" def:Label="Study Identifier"/>
            <ItemDef OID="IT.PP.DOMAIN" Name="DOMAIN" DataType="text" Length="8" SASFieldName="DOMAIN" def:Label="Domain Abbreviation"/>
            <ItemDef OID="IT.PP.USUBJID" Name="USUBJID" DataType="text" Length="40" SASFieldName="USUBJID" def:Label="Unique Subject Identifier"/>
            <ItemDef OID="IT.PP.PPSEQ" Name="PPSEQ" DataType="integer" Length="8" SASFieldName="PPSEQ" def:Label="Sequence Number"/>
            <ItemDef OID="IT.PP.PPGRPID" Name="PPGRPID" DataType="text" Length="40" SASFieldName="PPGRPID" def:Label="Group ID"/>
            <ItemDef OID="IT.PP.PPTESTCD" Name="PPTESTCD" DataType="text" Length="8" SASFieldName="PPTESTCD" def:Label="Parameter Short Name"/>
            <ItemDef OID="IT.PP.PPTEST" Name="PPTEST" DataType="text" Length="40" SASFieldName="PPTEST" def:Label="Parameter Name"/>
            <ItemDef OID="IT.PP.PPCAT" Name="PPCAT" DataType="text" Length="40" SASFieldName="PPCAT" def:Label="Parameter Category"/>
            <ItemDef OID="IT.PP.PPORRES" Name="PPORRES" DataType="text" Length="200" SASFieldName="PPORRES" def:Label="Result or Finding in Original Units"/>
            <ItemDef OID="IT.PP.PPORRESU" Name="PPORRESU" DataType="text" Length="40" SASFieldName="PPORRESU" def:Label="Original Units">
                <CodeListRef CodeListOID="CL.UNIT"/>
            </ItemDef>
            <ItemDef OID="IT.PP.PPSTRESC" Name="PPSTRESC" DataType="text" Length="200" SASFieldName="PPSTRESC" def:Label="Character Result/Finding in Std Format"/>
            <ItemDef OID="IT.PP.PPSTRESN" Name="PPSTRESN" DataType="float" Length="8" SignificantDigits="3" SASFieldName="PPSTRESN" def:Label="Numeric Result/Finding in Standard Units" def:DisplayFormat="8.3"/>
            <ItemDef OID="IT.PP.PPSTRESU" Name="PPSTRESU" DataType="text" Length="40" SASFieldName="PPSTRESU" def:Label="Standard Units">
                <CodeListRef CodeListOID="CL.UNIT"/>
            </ItemDef>
            <ItemDef OID="IT.PP.PPSPEC" Name="PPSPEC" DataType="text" Length="20" SASFieldName="PPSPEC" def:Label="Specimen Material Type"/>
            <ItemDef OID="IT.PP.VISITNUM" Name="VISITNUM" DataType="float" Length="8" SignificantDigits="1" SASFieldName="VISITNUM" def:Label="Visit Number" def:DisplayFormat="8.1"/>
            <ItemDef OID="IT.PP.VISIT" Name="VISIT" DataType="text" Length="40" SASFieldName="VISIT" def:Label="Visit Name"/>
            <ItemDef OID="IT.PP.PPDTC" Name="PPDTC" DataType="datetime" SASFieldName="PPDTC" def:Label="Date/Time of Parameter Calculations"/>
            <ItemDef OID="IT.PP.PPRFTDTC" Name="PPRFTDTC" DataType="datetime" SASFieldName="PPRFTDTC" def:Label="Date/Time of Reference Point"/>
            <ItemDef OID="IT.QS.STUDYID" Name="STUDYID" DataType="text" Length="40" SASFieldName="STUDYID" def:Label="Study Identifier"/>
            <ItemDef OID="IT.QS.USUBJID" Name="USUBJID" DataType="text" Length="40" SASFieldName="USUBJID" def:Label="Unique Subject Identifier"/>
            <ItemDef OID="IT.QS.DOMAIN" Name="DOMAIN" DataType="text" Length="8" SASFieldName="DOMAIN" def:Label="Domain Abbreviation"/>
            <ItemDef OID="IT.QS.QSSEQ" Name="QSSEQ" DataType="integer" Length="8" SASFieldName="QSSEQ" def:Label="Sequence Number"/>
            <ItemDef OID="IT.QS.QSGRPID" Name="QSGRPID" DataType="text" Length="40" SASFieldName="QSGRPID" def:Label="Group ID"/>
            <ItemDef OID="IT.QS.QSSPID" Name="QSSPID" DataType="text" Length="40" SASFieldName="QSSPID" def:Label="Sponsor-Defined Identifier"/>
            <ItemDef OID="IT.QS.QSTESTCD" Name="QSTESTCD" DataType="text" Length="8" SASFieldName="QSTESTCD" def:Label="Question Short Name"/>
            <ItemDef OID="IT.QS.QSTEST" Name="QSTEST" DataType="text" Length="40" SASFieldName="QSTEST" def:Label="Question Name"/>
            <ItemDef OID="IT.QS.QSCAT" Name="QSCAT" DataType="text" Length="40" SASFieldName="QSCAT" def:Label="Category of Question"/>
            <ItemDef OID="IT.QS.QSSCAT" Name="QSSCAT" DataType="text" Length="40" SASFieldName="QSSCAT" def:Label="Subcategory for Question"/>
            <ItemDef OID="IT.QS.QSORRES" Name="QSORRES" DataType="text" Length="200" SASFieldName="QSORRES" def:Label="Finding in Original Units"/>
            <ItemDef OID="IT.QS.QSORRESU" Name="QSORRESU" DataType="text" Length="40" SASFieldName="QSORRESU" def:Label="Original Units">
                <CodeListRef CodeListOID="CL.UNIT"/>
            </ItemDef>
            <ItemDef OID="IT.QS.QSSTRESC" Name="QSSTRESC" DataType="text" Length="200" SASFieldName="QSSTRESC" def:Label="Character Result/Finding in Std Format"/>
            <ItemDef OID="IT.QS.QSSTRESN" Name="QSSTRESN" DataType="float" Length="8" SignificantDigits="3" SASFieldName="QSSTRESN" def:Label="Numeric Finding in Standard Units" def:DisplayFormat="8.3"/>
            <ItemDef OID="IT.QS.QSSTRESU" Name="QSSTRESU" DataType="text" Length="40" SASFieldName="QSSTRESU" def:Label="Standard Units">
                <CodeListRef CodeListOID="CL.UNIT"/>
            </ItemDef>
            <ItemDef OID="IT.QS.QSSTAT" Name="QSSTAT" DataType="text" Length="40" SASFieldName="QSSTAT" def:Label="Completion Status">
                <CodeListRef CodeListOID="CL.ND"/>
            </ItemDef>
            <ItemDef OID="IT.QS.QSREASND" Name="QSREASND" DataType="text" Length="200" SASFieldName="QSREASND" def:Label="Reason Not Performed"/>
            <ItemDef OID="IT.QS.QSBLFL" Name="QSBLFL" DataType="text" Length="2" SASFieldName="QSBLFL" def:Label="Baseline Flag">
                <CodeListRef CodeListOID="CL.NY"/>
            </ItemDef>
            <ItemDef OID="IT.QS.QSDRVFL" Name="QSDRVFL" DataType="text" Length="2" SASFieldName="QSDRVFL" def:Label="Derived Flag">
                <CodeListRef CodeListOID="CL.NY"/>
            </ItemDef>
            <ItemDef OID="IT.QS.VISITNUM" Name="VISITNUM" DataType="float" Length="8" SignificantDigits="1" SASFieldName="VISITNUM" def:Label="Visit Number" def:DisplayFormat="8.1"/>
            <ItemDef OID="IT.QS.VISIT" Name="VISIT" DataType="text" Length="40" SASFieldName="VISIT" def:Label="Visit Name"/>
            <ItemDef OID="IT.QS.VISITDY" Name="VISITDY" DataType="integer" Length="8" SASFieldName="VISITDY" def:Label="Planned Study Day of Visit"/>
            <ItemDef OID="IT.QS.QSDTC" Name="QSDTC" DataType="datetime" SASFieldName="QSDTC" def:Label="Date/Time of Finding"/>
            <ItemDef OID="IT.QS.QSDY" Name="QSDY" DataType="integer" Length="8" SASFieldName="QSDY" def:Label="Study Day of Finding"/>
            <ItemDef OID="IT.QS.QSTPT" Name="QSTPT" DataType="text" Length="40" SASFieldName="QSTPT" def:Label="Planned Time Point Name"/>
            <ItemDef OID="IT.QS.QSTPTNUM" Name="QSTPTNUM" DataType="float" Length="8" SignificantDigits="1" SASFieldName="QSTPTNUM" def:Label="Planned Time Point Number" def:DisplayFormat="8.1"/>
            <ItemDef OID="IT.QS.QSELTM" Name="QSELTM" DataType="text" Length="64" SASFieldName="QSELTM" def:Label="Planned Elapsed Time from Time Point Ref"/>
            <ItemDef OID="IT.QS.QSTPTREF" Name="QSTPTREF" DataType="text" Length="40" SASFieldName="QSTPTREF" def:Label="Time Point Reference"/>
            <ItemDef OID="IT.QS.QSRFTDTC" Name="QSRFTDTC" DataType="datetime" SASFieldName="QSRFTDTC" def:Label="Date/Time of Reference Time Point"/>
            <ItemDef OID="IT.QS.QSEVLINT" Name="QSEVLINT" DataType="text" Length="64" SASFieldName="QSEVLINT" def:Label="Evaluation Interval"/>
            <ItemDef OID="IT.RELREC.STUDYID" Name="STUDYID" DataType="text" Length="40" SASFieldName="STUDYID" def:Label="Study Identifier"/>
            <ItemDef OID="IT.RELREC.RDOMAIN" Name="RDOMAIN" DataType="text" Length="8" SASFieldName="RDOMAIN" def:Label="Related Domain Abbreviation"/>
            <ItemDef OID="IT.RELREC.USUBJID" Name="USUBJID" DataType="text" Length="40" SASFieldName="USUBJID" def:Label="Unique Subject Identifier"/>
            <ItemDef OID="IT.RELREC.IDVAR" Name="IDVAR" DataType="text" Length="8" SASFieldName="IDVAR" def:Label="Identifying Variable"/>
            <ItemDef OID="IT.RELREC.IDVARVAL" Name="IDVARVAL" DataType="text" Length="40" SASFieldName="IDVARVAL" def:Label="Identifying Variable Value"/>
            <ItemDef OID="IT.RELREC.RELTYPE" Name="RELTYPE" DataType="text" Length="20" SASFieldName="RELTYPE" def:Label="Relationship Type"/>
            <ItemDef OID="IT.RELREC.RELID" Name="RELID" DataType="text" Length="40" SASFieldName="RELID" def:Label="Relationship Identifier"/>
            <ItemDef OID="IT.RS.STUDYID" Name="STUDYID" DataType="text" Length="40" SASFieldName="STUDYID" def:Label="Study Identifier"/>
            <ItemDef OID="IT.RS.DOMAIN" Name="DOMAIN" DataType="text" Length="8" SASFieldName="DOMAIN" def:Label="Domain Abbreviation"/>
            <ItemDef OID="IT.RS.USUBJID" Name="USUBJID" DataType="text" Length="40" SASFieldName="USUBJID" def:Label="Unique Subject Identifier"/>
            <ItemDef OID="IT.RS.RSSEQ" Name="RSSEQ" DataType="integer" Length="8" SASFieldName="RSSEQ" def:Label="Sequence Number"/>
            <ItemDef OID="IT.RS.RSGRPID" Name="RSGRPID" DataType="text" Length="40" SASFieldName="RSGRPID" def:Label="Group ID"/>
            <ItemDef OID="IT.RS.RSREFID" Name="RSREFID" DataType="text" Length="40" SASFieldName="RSREFID" def:Label="Reference ID"/>
            <ItemDef OID="IT.RS.RSSPID" Name="RSSPID" DataType="text" Length="40" SASFieldName="RSSPID" def:Label="Sponsor-Defined Identifier"/>
            <ItemDef OID="IT.RS.RSLNKID" Name="RSLNKID" DataType="text" Length="40" SASFieldName="RSLNKID" def:Label="Link ID"/>
            <ItemDef OID="IT.RS.RSLNKGRP" Name="RSLNKGRP" DataType="text" Length="40" SASFieldName="RSLNKGRP" def:Label="Link Group"/>
            <ItemDef OID="IT.RS.RSTESTCD" Name="RSTESTCD" DataType="text" Length="8" SASFieldName="RSTESTCD" def:Label="Response Assessment Short Name">
                <CodeListRef CodeListOID="CL.RSTESTCD"/>
            </ItemDef>
            <ItemDef OID="IT.RS.RSTEST" Name="RSTEST" DataType="text" Length="40" SASFieldName="RSTEST" def:Label="Response Assessment Name">
                <CodeListRef CodeListOID="CL.RSTEST"/>
            </ItemDef>
            <ItemDef OID="IT.RS.RSCAT" Name="RSCAT" DataType="text" Length="40" SASFieldName="RSCAT" def:Label="Category for Response Assessment"/>
            <ItemDef OID="IT.RS.RSORRES" Name="RSORRES" DataType="text" Length="200" SASFieldName="RSORRES" def:Label="Response Assessment Original Result"/>
            <ItemDef OID="IT.RS.RSSTRESC" Name="RSSTRESC" DataType="text" Length="40" SASFieldName="RSSTRESC" def:Label="Response Assessment Result in Std Format"/>
            <ItemDef OID="IT.RS.RSSTAT" Name="RSSTAT" DataType="text" Length="40" SASFieldName="RSSTAT" def:Label="Completion Status">
                <CodeListRef CodeListOID="CL.ND"/>
            </ItemDef>
            <ItemDef OID="IT.RS.RSREASND" Name="RSREASND" DataType="text" Length="200" SASFieldName="RSREASND" def:Label="Reason Response Assessment Not Performed"/>
            <ItemDef OID="IT.RS.RSNAM" Name="RSNAM" DataType="text" Length="40" SASFieldName="RSNAM" def:Label="Vendor Name"/>
            <ItemDef OID="IT.RS.RSEVAL" Name="RSEVAL" DataType="text" Length="40" SASFieldName="RSEVAL" def:Label="Evaluator">
                <CodeListRef CodeListOID="CL.EVAL"/>
            </ItemDef>
            <ItemDef OID="IT.RS.RSEVALID" Name="RSEVALID" DataType="text" Length="40" SASFieldName="RSEVALID" def:Label="Evaluator Identifier">
                <CodeListRef CodeListOID="CL.MEDEVAL"/>
            </ItemDef>
            <ItemDef OID="IT.RS.RSACPTFL" Name="RSACPTFL" DataType="text" Length="2" SASFieldName="RSACPTFL" def:Label="Accepted Record Flag">
                <CodeListRef CodeListOID="CL.NY"/>
            </ItemDef>
            <ItemDef OID="IT.RS.VISITNUM" Name="VISITNUM" DataType="float" Length="8" SignificantDigits="1" SASFieldName="VISITNUM" def:Label="Visit Number" def:DisplayFormat="8.1"/>
            <ItemDef OID="IT.RS.VISIT" Name="VISIT" DataType="text" Length="40" SASFieldName="VISIT" def:Label="Visit Name"/>
            <ItemDef OID="IT.RS.VISITDY" Name="VISITDY" DataType="integer" Length="8" SASFieldName="VISITDY" def:Label="Planned Study Day of Visit"/>
            <ItemDef OID="IT.RS.EPOCH" Name="EPOCH" DataType="text" Length="40" SASFieldName="EPOCH" def:Label="Epoch"/>
            <ItemDef OID="IT.RS.RSDTC" Name="RSDTC" DataType="datetime" SASFieldName="RSDTC" def:Label="Date/Time of Response Assessment"/>
            <ItemDef OID="IT.RS.RSDY" Name="RSDY" DataType="integer" Length="8" SASFieldName="RSDY" def:Label="Study Day of Response Assessment"/>
            <ItemDef OID="IT.SC.STUDYID" Name="STUDYID" DataType="text" Length="40" SASFieldName="STUDYID" def:Label="Study Identifier"/>
            <ItemDef OID="IT.SC.DOMAIN" Name="DOMAIN" DataType="text" Length="8" SASFieldName="DOMAIN" def:Label="Domain Abbreviation"/>
            <ItemDef OID="IT.SC.USUBJID" Name="USUBJID" DataType="text" Length="40" SASFieldName="USUBJID" def:Label="Unique Subject Identifier"/>
            <ItemDef OID="IT.SC.SCSEQ" Name="SCSEQ" DataType="integer" Length="8" SASFieldName="SCSEQ" def:Label="Sequence Number"/>
            <ItemDef OID="IT.SC.SCGRPID" Name="SCGRPID" DataType="text" Length="40" SASFieldName="SCGRPID" def:Label="Group ID"/>
            <ItemDef OID="IT.SC.SCSPID" Name="SCSPID" DataType="text" Length="40" SASFieldName="SCSPID" def:Label="Sponsor-Defined Identifier"/>
            <ItemDef OID="IT.SC.SCTESTCD" Name="SCTESTCD" DataType="text" Length="8" SASFieldName="SCTESTCD" def:Label="Subject Characteristic Short Name">
                <CodeListRef CodeListOID="CL.SCCD"/>
                <def:ValueListRef ValueListOID="VL.SC.SCTESTCD"/>
            </ItemDef>
            <ItemDef OID="IT.SC.SCTEST" Name="SCTEST" DataType="text" Length="40" SASFieldName="SCTEST" def:Label="Subject Characteristic"/>
            <ItemDef OID="IT.SC.SCCAT" Name="SCCAT" DataType="text" Length="40" SASFieldName="SCCAT" def:Label="Category for Subject Characteristic"/>
            <ItemDef OID="IT.SC.SCSCAT" Name="SCSCAT" DataType="text" Length="40" SASFieldName="SCSCAT" def:Label="Subcategory for Subject Characteristic"/>
            <ItemDef OID="IT.SC.SCORRES" Name="SCORRES" DataType="text" Length="200" SASFieldName="SCORRES" def:Label="Result or Finding in Original Units"/>
            <ItemDef OID="IT.SC.SCORRESU" Name="SCORRESU" DataType="text" Length="40" SASFieldName="SCORRESU" def:Label="Original Units">
                <CodeListRef CodeListOID="CL.UNIT"/>
            </ItemDef>
            <ItemDef OID="IT.SC.SCSTRESC" Name="SCSTRESC" DataType="text" Length="200" SASFieldName="SCSTRESC" def:Label="Character Result/Finding in Std Format"/>
            <ItemDef OID="IT.SC.SCSTRESN" Name="SCSTRESN" DataType="float" Length="8" SignificantDigits="3" SASFieldName="SCSTRESN" def:Label="Numeric Result/Finding in Standard Units" def:DisplayFormat="8.3"/>
            <ItemDef OID="IT.SC.SCSTRESU" Name="SCSTRESU" DataType="text" Length="40" SASFieldName="SCSTRESU" def:Label="Standard Units">
                <CodeListRef CodeListOID="CL.UNIT"/>
            </ItemDef>
            <ItemDef OID="IT.SC.SCSTAT" Name="SCSTAT" DataType="text" Length="40" SASFieldName="SCSTAT" def:Label="Completion Status">
                <CodeListRef CodeListOID="CL.ND"/>
            </ItemDef>
            <ItemDef OID="IT.SC.SCREASND" Name="SCREASND" DataType="text" Length="200" SASFieldName="SCREASND" def:Label="Reason Not Performed"/>
            <ItemDef OID="IT.SC.SCDTC" Name="SCDTC" DataType="datetime" SASFieldName="SCDTC" def:Label="Date/Time of Collection"/>
            <ItemDef OID="IT.SC.SCDY" Name="SCDY" DataType="integer" Length="8" SASFieldName="SCDY" def:Label="Study Day of Examination"/>
            <ItemDef OID="IT.SE.STUDYID" Name="STUDYID" DataType="text" Length="40" SASFieldName="STUDYID" def:Label="Study Identifier"/>
            <ItemDef OID="IT.SE.DOMAIN" Name="DOMAIN" DataType="text" Length="8" SASFieldName="DOMAIN" def:Label="Domain Abbreviation"/>
            <ItemDef OID="IT.SE.USUBJID" Name="USUBJID" DataType="text" Length="40" SASFieldName="USUBJID" def:Label="Unique Subject Identifier"/>
            <ItemDef OID="IT.SE.SESEQ" Name="SESEQ" DataType="integer" Length="8" SASFieldName="SESEQ" def:Label="Sequence Number"/>
            <ItemDef OID="IT.SE.ETCD" Name="ETCD" DataType="text" Length="8" SASFieldName="ETCD" def:Label="Element Code"/>
            <ItemDef OID="IT.SE.ELEMENT" Name="ELEMENT" DataType="text" Length="40" SASFieldName="ELEMENT" def:Label="Description of Element"/>
            <ItemDef OID="IT.SE.SESTDTC" Name="SESTDTC" DataType="datetime" SASFieldName="SESTDTC" def:Label="Start Date/Time of Element"/>
            <ItemDef OID="IT.SE.SEENDTC" Name="SEENDTC" DataType="datetime" SASFieldName="SEENDTC" def:Label="End Date/Time of Element"/>
            <ItemDef OID="IT.SE.TAETORD" Name="TAETORD" DataType="integer" Length="8" SASFieldName="TAETORD" def:Label="Planned Order of Element within Arm"/>
            <ItemDef OID="IT.SE.EPOCH" Name="EPOCH" DataType="text" Length="40" SASFieldName="EPOCH" def:Label="Epoch"/>
            <ItemDef OID="IT.SE.SEUPDES" Name="SEUPDES" DataType="text" Length="200" SASFieldName="SEUPDES" def:Label="Description of Unplanned Element"/>
            <ItemDef OID="IT.SU.STUDYID" Name="STUDYID" DataType="text" Length="40" SASFieldName="STUDYID" def:Label="Study Identifier"/>
            <ItemDef OID="IT.SU.DOMAIN" Name="DOMAIN" DataType="text" Length="8" SASFieldName="DOMAIN" def:Label="Domain Abbreviation"/>
            <ItemDef OID="IT.SU.USUBJID" Name="USUBJID" DataType="text" Length="40" SASFieldName="USUBJID" def:Label="Unique Subject Identifier"/>
            <ItemDef OID="IT.SU.SUSEQ" Name="SUSEQ" DataType="integer" Length="8" SASFieldName="SUSEQ" def:Label="Sequence Number"/>
            <ItemDef OID="IT.SU.SUGRPID" Name="SUGRPID" DataType="text" Length="40" SASFieldName="SUGRPID" def:Label="Group ID"/>
            <ItemDef OID="IT.SU.SUSPID" Name="SUSPID" DataType="text" Length="40" SASFieldName="SUSPID" def:Label="Sponsor-Defined Identifier"/>
            <ItemDef OID="IT.SU.SUTRT" Name="SUTRT" DataType="text" Length="200" SASFieldName="SUTRT" def:Label="Reported Name of Substance"/>
            <ItemDef OID="IT.SU.SUMODIFY" Name="SUMODIFY" DataType="text" Length="200" SASFieldName="SUMODIFY" def:Label="Modified Substance Name"/>
            <ItemDef OID="IT.SU.SUDECOD" Name="SUDECOD" DataType="text" Length="200" SASFieldName="SUDECOD" def:Label="Standardized Substance Name"/>
            <ItemDef OID="IT.SU.SUCAT" Name="SUCAT" DataType="text" Length="40" SASFieldName="SUCAT" def:Label="Category for Substance Use"/>
            <ItemDef OID="IT.SU.SUSCAT" Name="SUSCAT" DataType="text" Length="40" SASFieldName="SUSCAT" def:Label="Subcategory for Substance Use"/>
            <ItemDef OID="IT.SU.SUPRESP" Name="SUPRESP" DataType="text" Length="2" SASFieldName="SUPRESP" def:Label="SU Pre-Specified">
                <CodeListRef CodeListOID="CL.NY"/>
            </ItemDef>
            <ItemDef OID="IT.SU.SUOCCUR" Name="SUOCCUR" DataType="text" Length="2" SASFieldName="SUOCCUR" def:Label="SU Occurrence">
                <CodeListRef CodeListOID="CL.NY"/>
            </ItemDef>
            <ItemDef OID="IT.SU.SUSTAT" Name="SUSTAT" DataType="text" Length="40" SASFieldName="SUSTAT" def:Label="Completion Status">
                <CodeListRef CodeListOID="CL.ND"/>
            </ItemDef>
            <ItemDef OID="IT.SU.SUREASND" Name="SUREASND" DataType="text" Length="200" SASFieldName="SUREASND" def:Label="Reason Substance Use Not Collected"/>
            <ItemDef OID="IT.SU.SUCLAS" Name="SUCLAS" DataType="text" Length="200" SASFieldName="SUCLAS" def:Label="Substance Use Class"/>
            <ItemDef OID="IT.SU.SUCLASCD" Name="SUCLASCD" DataType="text" Length="40" SASFieldName="SUCLASCD" def:Label="Substance Use Class Code"/>
            <ItemDef OID="IT.SU.SUDOSE" Name="SUDOSE" DataType="float" Length="8" SignificantDigits="3" SASFieldName="SUDOSE" def:Label="Substance Use Consumption" def:DisplayFormat="8.3"/>
            <ItemDef OID="IT.SU.SUDOSTXT" Name="SUDOSTXT" DataType="text" Length="200" SASFieldName="SUDOSTXT" def:Label="Substance Use Consumption Text"/>
            <ItemDef OID="IT.SU.SUDOSU" Name="SUDOSU" DataType="text" Length="40" SASFieldName="SUDOSU" def:Label="Consumption Units">
                <CodeListRef CodeListOID="CL.UNIT"/>
            </ItemDef>
            <ItemDef OID="IT.SU.SUDOSFRM" Name="SUDOSFRM" DataType="text" Length="80" SASFieldName="SUDOSFRM" def:Label="Dose Form"/>
            <ItemDef OID="IT.SU.SUDOSFRQ" Name="SUDOSFRQ" DataType="text" Length="40" SASFieldName="SUDOSFRQ" def:Label="Use Frequency Per Interval">
                <CodeListRef CodeListOID="CL.FREQ"/>
            </ItemDef>
            <ItemDef OID="IT.SU.SUDOSTOT" Name="SUDOSTOT" DataType="float" Length="8" SignificantDigits="3" SASFieldName="SUDOSTOT" def:Label="Total Daily Consumption" def:DisplayFormat="8.3"/>
            <ItemDef OID="IT.SU.SUROUTE" Name="SUROUTE" DataType="text" Length="40" SASFieldName="SUROUTE" def:Label="Route of Administration">
                <CodeListRef CodeListOID="CL.ROUTE"/>
            </ItemDef>
            <ItemDef OID="IT.SU.SUSTDTC" Name="SUSTDTC" DataType="datetime" SASFieldName="SUSTDTC" def:Label="Start Date/Time of Substance Use"/>
            <ItemDef OID="IT.SU.SUENDTC" Name="SUENDTC" DataType="datetime" SASFieldName="SUENDTC" def:Label="End Date/Time of Substance Use"/>
            <ItemDef OID="IT.SU.SUSTDY" Name="SUSTDY" DataType="integer" Length="8" SASFieldName="SUSTDY" def:Label="Study Day of Start of Substance Use"/>
            <ItemDef OID="IT.SU.SUENDY" Name="SUENDY" DataType="integer" Length="8" SASFieldName="SUENDY" def:Label="Study Day of End of Substance Use"/>
            <ItemDef OID="IT.SU.SUDUR" Name="SUDUR" DataType="text" Length="64" SASFieldName="SUDUR" def:Label="Duration of Substance Use"/>
            <ItemDef OID="IT.SU.SUSTRF" Name="SUSTRF" DataType="text" Length="20" SASFieldName="SUSTRF" def:Label="Start Relative to Reference Period">
                <CodeListRef CodeListOID="CL.STENRF"/>
            </ItemDef>
            <ItemDef OID="IT.SU.SUENRF" Name="SUENRF" DataType="text" Length="20" SASFieldName="SUENRF" def:Label="End Relative to Reference Period">
                <CodeListRef CodeListOID="CL.STENRF"/>
            </ItemDef>
            <ItemDef OID="IT.SU.SUSTRTPT" Name="SUSTRTPT" DataType="text" Length="40" SASFieldName="SUSTRTPT" def:Label="Start Relative to Reference Time Point"/>
            <ItemDef OID="IT.SU.SUSTTPT" Name="SUSTTPT" DataType="text" Length="40" SASFieldName="SUSTTPT" def:Label="Start Reference Time Point"/>
            <ItemDef OID="IT.SU.SUENRTPT" Name="SUENRTPT" DataType="text" Length="40" SASFieldName="SUENRTPT" def:Label="End Relative to Reference Time Point"/>
            <ItemDef OID="IT.SU.SUENTPT" Name="SUENTPT" DataType="text" Length="40" SASFieldName="SUENTPT" def:Label="End Reference Time Point"/>
            <ItemDef OID="IT.SUPPAE.STUDYID" Name="STUDYID" DataType="text" Length="40" SASFieldName="STUDYID" def:Label="Study Identifier"/>
            <ItemDef OID="IT.SUPPAE.RDOMAIN" Name="RDOMAIN" DataType="text" Length="8" SASFieldName="RDOMAIN" def:Label="Related Domain Abbreviation"/>
            <ItemDef OID="IT.SUPPAE.USUBJID" Name="USUBJID" DataType="text" Length="40" SASFieldName="USUBJID" def:Label="Unique Subject Identifier"/>
            <ItemDef OID="IT.SUPPAE.IDVAR" Name="IDVAR" DataType="text" Length="8" SASFieldName="IDVAR" def:Label="Identifying Variable"/>
            <ItemDef OID="IT.SUPPAE.IDVARVAL" Name="IDVARVAL" DataType="text" Length="40" SASFieldName="IDVARVAL" def:Label="Identifying Variable Value"/>
            <ItemDef OID="IT.SUPPAE.QNAM" Name="QNAM" DataType="text" Length="8" SASFieldName="QNAM" def:Label="Qualifier Variable Name">
                <def:ValueListRef ValueListOID="VL.SUPPAE.QNAM"/>
            </ItemDef>
            <ItemDef OID="IT.SUPPAE.QLABEL" Name="QLABEL" DataType="text" Length="40" SASFieldName="QLABEL" def:Label="Qualifier Variable Label"/>
            <ItemDef OID="IT.SUPPAE.QVAL" Name="QVAL" DataType="text" Length="200" SASFieldName="QVAL" def:Label="Data Value"/>
            <ItemDef OID="IT.SUPPAE.QORIG" Name="QORIG" DataType="text" Length="20" SASFieldName="QORIG" def:Label="Origin"/>
            <ItemDef OID="IT.SUPPAE.QEVAL" Name="QEVAL" DataType="text" Length="40" SASFieldName="QEVAL" def:Label="Evaluator"/>
            <ItemDef OID="IT.SV.STUDYID" Name="STUDYID" DataType="text" Length="40" SASFieldName="STUDYID" def:Label="Study Identifier"/>
            <ItemDef OID="IT.SV.DOMAIN" Name="DOMAIN" DataType="text" Length="8" SASFieldName="DOMAIN" def:Label="Domain Abbreviation"/>
            <ItemDef OID="IT.SV.USUBJID" Name="USUBJID" DataType="text" Length="40" SASFieldName="USUBJID" def:Label="Unique Subject Identifier"/>
            <ItemDef OID="IT.SV.VISITNUM" Name="VISITNUM" DataType="float" Length="8" SignificantDigits="1" SASFieldName="VISITNUM" def:Label="Visit Number" def:DisplayFormat="8.1"/>
            <ItemDef OID="IT.SV.VISIT" Name="VISIT" DataType="text" Length="40" SASFieldName="VISIT" def:Label="Visit Name"/>
            <ItemDef OID="IT.SV.VISITDY" Name="VISITDY" DataType="integer" Length="8" SASFieldName="VISITDY" def:Label="Planned Study Day of Visit"/>
            <ItemDef OID="IT.SV.SVSTDTC" Name="SVSTDTC" DataType="datetime" SASFieldName="SVSTDTC" def:Label="Start Date/Time of Visit"/>
            <ItemDef OID="IT.SV.SVENDTC" Name="SVENDTC" DataType="datetime" SASFieldName="SVENDTC" def:Label="End Date/Time of Visit"/>
            <ItemDef OID="IT.SV.SVSTDY" Name="SVSTDY" DataType="integer" Length="8" SASFieldName="SVSTDY" def:Label="Study Day of Start of Visit"/>
            <ItemDef OID="IT.SV.SVENDY" Name="SVENDY" DataType="integer" Length="8" SASFieldName="SVENDY" def:Label="Study Day of End of Visit"/>
            <ItemDef OID="IT.SV.SVUPDES" Name="SVUPDES" DataType="text" Length="200" SASFieldName="SVUPDES" def:Label="Description of Unplanned Visit"/>
            <ItemDef OID="IT.TA.STUDYID" Name="STUDYID" DataType="text" Length="40" SASFieldName="STUDYID" def:Label="Study Identifier"/>
            <ItemDef OID="IT.TA.DOMAIN" Name="DOMAIN" DataType="text" Length="8" SASFieldName="DOMAIN" def:Label="Domain Abbreviation"/>
