<?xml version="1.0" encoding="UTF-8"?>
<?xml-stylesheet type="text/xsl" href="define1-0-0.xsl"?>
<!-- ******************************************************************************* -->
<!-- File: define.xml                                                                -->
<!-- Date: 2011-06-28                                                                -->
<!-- Adapted from sample as published by CDISC SDS Metadata Team  (2010-02-23)       -->
<!-- ******************************************************************************* -->
<ODM xmlns:xlink="http://www.w3.org/1999/xlink" xmlns:def="http://www.cdisc.org/ns/def/v1.0" xmlns="http://www.cdisc.org/ns/odm/v1.2" FileOID="Studycdisc01" CreationDateTime="2011-06-28T14:56:48-04:00" FileType="Snapshot" ODMVersion="1.2.1">
    <Study OID="cdisc01">
        <GlobalVariables>
            <StudyName>CDISC01</StudyName>
            <StudyDescription>CDISC Test Study</StudyDescription>
            <ProtocolName>CDISC01</ProtocolName>
        </GlobalVariables>
        <MetaDataVersion OID="CDISC.SDTMIG.3.1.2" Name="Study CDISC01, Data Definitions" Description="Study CDISC01, Data Definitions" def:DefineVersion="1.0.0" def:StandardName="CDISC SDTM" def:StandardVersion="3.1.2">
            <def:AnnotatedCRF>
                <def:DocumentRef leafID="blankcrf"/>
            </def:AnnotatedCRF>
            <def:SupplementalDoc>
                <def:DocumentRef leafID="ReviewersGuide"/>
            </def:SupplementalDoc>
            <def:leaf ID="blankcrf" xlink:href="blankcrf.pdf">
                <def:title>Annotated Case Report Form</def:title>
            </def:leaf>
            <def:leaf ID="ReviewersGuide" xlink:href="ReviewersGuide.pdf">
                <def:title>Reviewers Guide</def:title>
            </def:leaf>
            <def:ComputationMethod OID="COMPMETHOD.QTCB">QTcB = QT interval / square root of (60 / heart rate)</def:ComputationMethod>
            <def:ComputationMethod OID="COMPMETHOD.QTCF">QTcF = QT interval / cubic root of (60 / heart rate)</def:ComputationMethod>
            <def:ValueListDef OID="ValueList.DA.DATESTCD">
                <ItemRef ItemOID="DA.DATESTCD.DISPAMT" OrderNumber="1" Mandatory="No"/>
                <ItemRef ItemOID="DA.DATESTCD.RETAMT" OrderNumber="2" Mandatory="No"/>
            </def:ValueListDef>
            <def:ValueListDef OID="ValueList.EG.EGTESTCD">
                <ItemRef ItemOID="EG.EGTESTCD.INTP" OrderNumber="3" Mandatory="No"/>
                <ItemRef ItemOID="EG.EGTESTCD.PRMEAN" OrderNumber="4" Mandatory="No"/>
                <ItemRef ItemOID="EG.EGTESTCD.QRSDUR" OrderNumber="5" Mandatory="No"/>
                <ItemRef ItemOID="EG.EGTESTCD.QTCB" OrderNumber="6" Mandatory="No"/>
                <ItemRef ItemOID="EG.EGTESTCD.QTCF" OrderNumber="7" Mandatory="No"/>
                <ItemRef ItemOID="EG.EGTESTCD.QTMEAN" OrderNumber="8" Mandatory="No"/>
                <ItemRef ItemOID="EG.EGTESTCD.VRMEAN" OrderNumber="9" Mandatory="No"/>
            </def:ValueListDef>
            <def:ValueListDef OID="ValueList.PE.PETESTCD">
                <ItemRef ItemOID="PE.PETESTCD.PE01" OrderNumber="10" Mandatory="No"/>
                <ItemRef ItemOID="PE.PETESTCD.PE02" OrderNumber="11" Mandatory="No"/>
                <ItemRef ItemOID="PE.PETESTCD.PE03" OrderNumber="12" Mandatory="No"/>
                <ItemRef ItemOID="PE.PETESTCD.PE04" OrderNumber="13" Mandatory="No"/>
                <ItemRef ItemOID="PE.PETESTCD.PE05" OrderNumber="14" Mandatory="No"/>
                <ItemRef ItemOID="PE.PETESTCD.PE06" OrderNumber="15" Mandatory="No"/>
                <ItemRef ItemOID="PE.PETESTCD.PE07" OrderNumber="16" Mandatory="No"/>
                <ItemRef ItemOID="PE.PETESTCD.PE08" OrderNumber="17" Mandatory="No"/>
                <ItemRef ItemOID="PE.PETESTCD.PE09" OrderNumber="18" Mandatory="No"/>
            </def:ValueListDef>
            <def:ValueListDef OID="ValueList.SC.SCTESTCD">
                <ItemRef ItemOID="SC.SCTESTCD.EDLEVEL" OrderNumber="19" Mandatory="No"/>
                <ItemRef ItemOID="SC.SCTESTCD.MARISTAT" OrderNumber="20" Mandatory="No"/>
                <ItemRef ItemOID="SC.SCTESTCD.SUBJINIT" OrderNumber="21" Mandatory="No"/>
            </def:ValueListDef>
            <def:ValueListDef OID="ValueList.VS.VSTESTCD">
                <ItemRef ItemOID="VS.VSTESTCD.DIABP" OrderNumber="22" Mandatory="No"/>
                <ItemRef ItemOID="VS.VSTESTCD.FRMSIZE" OrderNumber="23" Mandatory="No"/>
                <ItemRef ItemOID="VS.VSTESTCD.HEIGHT" OrderNumber="24" Mandatory="No"/>
                <ItemRef ItemOID="VS.VSTESTCD.PULSE" OrderNumber="25" Mandatory="No"/>
                <ItemRef ItemOID="VS.VSTESTCD.SYSBP" OrderNumber="26" Mandatory="No"/>
                <ItemRef ItemOID="VS.VSTESTCD.WEIGHT" OrderNumber="27" Mandatory="No"/>
            </def:ValueListDef>
            <def:ValueListDef OID="ValueList.LB.LBCAT">
                <ItemRef ItemOID="LB.LBCAT.Chemistry" OrderNumber="1" Mandatory="No"/>
                <ItemRef ItemOID="LB.LBCAT.Hematology" OrderNumber="2" Mandatory="No"/>
                <ItemRef ItemOID="LB.LBCAT.Urinalysis" OrderNumber="3" Mandatory="No"/>
            </def:ValueListDef>
            <def:ValueListDef OID="ValueList.LB.LBCAT.Chemistry.LBSPEC">
                <ItemRef ItemOID="LB.LBCAT.Chemistry.LBSPEC.BLOOD" OrderNumber="1" Mandatory="No"/>
                <ItemRef ItemOID="LB.LBCAT.Chemistry.LBSPEC.SERUM" OrderNumber="2" Mandatory="No"/>
            </def:ValueListDef>
            <def:ValueListDef OID="ValueList.LB.LBCAT.Chemistry.LBSPEC.BLOOD.LBTESTCD">
                <ItemRef ItemOID="LB.LBCAT.Chemistry.LBSPEC.BLOOD.LBTESTCD.BILI" OrderNumber="1" Mandatory="No"/>
                <ItemRef ItemOID="LB.LBCAT.Chemistry.LBSPEC.BLOOD.LBTESTCD.BUN" OrderNumber="2" Mandatory="No"/>
                <ItemRef ItemOID="LB.LBCAT.Chemistry.LBSPEC.BLOOD.LBTESTCD.GLUC" OrderNumber="3" Mandatory="No"/>
                <ItemRef ItemOID="LB.LBCAT.Chemistry.LBSPEC.BLOOD.LBTESTCD.VITB9" OrderNumber="4" Mandatory="No"/>
            </def:ValueListDef>
            <def:ValueListDef OID="ValueList.LB.LBCAT.Chemistry.LBSPEC.SERUM.LBTESTCD">
                <ItemRef ItemOID="LB.LBCAT.Chemistry.LBSPEC.SERUM.LBTESTCD.VITB12" OrderNumber="5" Mandatory="No"/>
            </def:ValueListDef>
            <def:ValueListDef OID="ValueList.LB.LBCAT.Hematology.LBSPEC">
                <ItemRef ItemOID="LB.LBCAT.Hematology.LBSPEC.BLOOD" OrderNumber="3" Mandatory="No"/>
            </def:ValueListDef>
            <def:ValueListDef OID="ValueList.LB.LBCAT.Hematology.LBSPEC.BLOOD.LBTESTCD">
                <ItemRef ItemOID="LB.LBCAT.Hematology.LBSPEC.BLOOD.LBTESTCD.HCT" OrderNumber="6" Mandatory="No"/>
                <ItemRef ItemOID="LB.LBCAT.Hematology.LBSPEC.BLOOD.LBTESTCD.HGB" OrderNumber="7" Mandatory="No"/>
                <ItemRef ItemOID="LB.LBCAT.Hematology.LBSPEC.BLOOD.LBTESTCD.LYM" OrderNumber="8" Mandatory="No"/>
            </def:ValueListDef>
            <def:ValueListDef OID="ValueList.LB.LBCAT.Urinalysis.LBSPEC">
                <ItemRef ItemOID="LB.LBCAT.Urinalysis.LBSPEC.URINE" OrderNumber="4" Mandatory="No"/>
            </def:ValueListDef>
            <def:ValueListDef OID="ValueList.LB.LBCAT.Urinalysis.LBSPEC.URINE.LBMETHOD">
                <ItemRef ItemOID="LB.LBCAT.Urinalysis.LBSPEC.URINE.LBMETHOD.DIPSTICK" OrderNumber="1" Mandatory="No"/>
                <ItemRef ItemOID="LB.LBCAT.Urinalysis.LBSPEC.URINE.LBMETHOD.QUANT" OrderNumber="2" Mandatory="No"/>
                <ItemRef ItemOID="LB.LBCAT.Urinalysis.LBSPEC.URINE.LBMETHOD.NOMETHOD" OrderNumber="3" Mandatory="No"/>
            </def:ValueListDef>
            <def:ValueListDef OID="ValueList.LB.LBCAT.Urinalysis.LBSPEC.URINE.LBMETHOD.DIPSTICK.LBTESTCD">
                <ItemRef ItemOID="LB.LBCAT.Urinalysis.LBSPEC.URINE.LBMETHOD.DIPSTICK.LBTESTCD.GLUC" OrderNumber="11" Mandatory="No"/>
            </def:ValueListDef>
            <def:ValueListDef OID="ValueList.LB.LBCAT.Urinalysis.LBSPEC.URINE.LBMETHOD.QUANT.LBTESTCD">
                <ItemRef ItemOID="LB.LBCAT.Urinalysis.LBSPEC.URINE.LBMETHOD.QUANT.LBTESTCD.GLUC" OrderNumber="12" Mandatory="No"/>
            </def:ValueListDef>
            <def:ValueListDef OID="ValueList.LB.LBCAT.Urinalysis.LBSPEC.URINE.LBMETHOD.NOMETHOD.LBTESTCD">
                <ItemRef ItemOID="LB.LBCAT.Urinalysis.LBSPEC.URINE.LBTESTCD.OCCBLD" OrderNumber="9" Mandatory="No"/>
                <ItemRef ItemOID="LB.LBCAT.Urinalysis.LBSPEC.URINE.LBTESTCD.PH" OrderNumber="10" Mandatory="No"/>
            </def:ValueListDef>
            <def:ValueListDef OID="ValueList.QS.QSCAT">
                <ItemRef ItemOID="QS.QSCAT.CG" OrderNumber="1" Mandatory="No"/>
                <ItemRef ItemOID="QS.QSCAT.CS" OrderNumber="2" Mandatory="No"/>
                <ItemRef ItemOID="QS.QSCAT.MM" OrderNumber="3" Mandatory="No"/>
            </def:ValueListDef>
            <def:ValueListDef OID="ValueList.QS.QSCAT.CG.QSTESTCD">
                <ItemRef ItemOID="QS.QSTESTCD.CGIGLOB" OrderNumber="1" Mandatory="No"/>
            </def:ValueListDef>
            <def:ValueListDef OID="ValueList.QS.QSCAT.CS.QSTESTCD">
                <ItemRef ItemOID="QS.QSTESTCD.CSDD01" OrderNumber="2" Mandatory="No"/>
                <ItemRef ItemOID="QS.QSTESTCD.CSDD02" OrderNumber="3" Mandatory="No"/>
                <ItemRef ItemOID="QS.QSTESTCD.CSDD03" OrderNumber="4" Mandatory="No"/>
                <ItemRef ItemOID="QS.QSTESTCD.CSDD04" OrderNumber="5" Mandatory="No"/>
                <ItemRef ItemOID="QS.QSTESTCD.CSDD05" OrderNumber="6" Mandatory="No"/>
                <ItemRef ItemOID="QS.QSTESTCD.CSDD06" OrderNumber="7" Mandatory="No"/>
                <ItemRef ItemOID="QS.QSTESTCD.CSDD07" OrderNumber="8" Mandatory="No"/>
                <ItemRef ItemOID="QS.QSTESTCD.CSDD08" OrderNumber="9" Mandatory="No"/>
                <ItemRef ItemOID="QS.QSTESTCD.CSDD09" OrderNumber="10" Mandatory="No"/>
                <ItemRef ItemOID="QS.QSTESTCD.CSDD10" OrderNumber="11" Mandatory="No"/>
                <ItemRef ItemOID="QS.QSTESTCD.CSDD11" OrderNumber="12" Mandatory="No"/>
                <ItemRef ItemOID="QS.QSTESTCD.CSDD12" OrderNumber="13" Mandatory="No"/>
                <ItemRef ItemOID="QS.QSTESTCD.CSDD13" OrderNumber="14" Mandatory="No"/>
                <ItemRef ItemOID="QS.QSTESTCD.CSDD14" OrderNumber="15" Mandatory="No"/>
                <ItemRef ItemOID="QS.QSTESTCD.CSDD15" OrderNumber="16" Mandatory="No"/>
                <ItemRef ItemOID="QS.QSTESTCD.CSDD16" OrderNumber="17" Mandatory="No"/>
                <ItemRef ItemOID="QS.QSTESTCD.CSDD17" OrderNumber="18" Mandatory="No"/>
                <ItemRef ItemOID="QS.QSTESTCD.CSDD18" OrderNumber="19" Mandatory="No"/>
                <ItemRef ItemOID="QS.QSTESTCD.CSDD19" OrderNumber="20" Mandatory="No"/>
                <ItemRef ItemOID="QS.QSTESTCD.CSDDTOT" OrderNumber="21" Mandatory="No"/>
            </def:ValueListDef>
            <def:ValueListDef OID="ValueList.QS.QSCAT.MM.QSTESTCD">
                <ItemRef ItemOID="QS.QSTESTCD.MMSEA1" OrderNumber="22" Mandatory="No"/>
                <ItemRef ItemOID="QS.QSTESTCD.MMSEA2" OrderNumber="23" Mandatory="No"/>
                <ItemRef ItemOID="QS.QSTESTCD.MMSEB" OrderNumber="24" Mandatory="No"/>
                <ItemRef ItemOID="QS.QSTESTCD.MMSEC" OrderNumber="25" Mandatory="No"/>
                <ItemRef ItemOID="QS.QSTESTCD.MMSED" OrderNumber="26" Mandatory="No"/>
                <ItemRef ItemOID="QS.QSTESTCD.MMSEET" OrderNumber="27" Mandatory="No"/>
                <ItemRef ItemOID="QS.QSTESTCD.MMSETOT" OrderNumber="28" Mandatory="No"/>
            </def:ValueListDef>
            <def:ValueListDef OID="ValueList.IE.IECAT">
                <ItemRef ItemOID="IE.IECAT.EXCLUSION" OrderNumber="1" Mandatory="No"/>
                <ItemRef ItemOID="IE.IECAT.INCLUSION" OrderNumber="2" Mandatory="No"/>
            </def:ValueListDef>
            <def:ValueListDef OID="ValueList.IE.IECAT.EXCLUSION.IETESTCD">
                <ItemRef ItemOID="IE.IECAT.EXCLUSION.IETESTCD.EXCL01" OrderNumber="1" Mandatory="No"/>
                <ItemRef ItemOID="IE.IECAT.EXCLUSION.IETESTCD.EXCL02" OrderNumber="2" Mandatory="No"/>
                <ItemRef ItemOID="IE.IECAT.EXCLUSION.IETESTCD.EXCL03" OrderNumber="3" Mandatory="No"/>
            </def:ValueListDef>
            <def:ValueListDef OID="ValueList.IE.IECAT.INCLUSION.IETESTCD">
                <ItemRef ItemOID="IE.IECAT.INCLUSION.IETESTCD.INCL01" OrderNumber="4" Mandatory="No"/>
                <ItemRef ItemOID="IE.IECAT.INCLUSION.IETESTCD.INCL02" OrderNumber="5" Mandatory="No"/>
                <ItemRef ItemOID="IE.IECAT.INCLUSION.IETESTCD.INCL03" OrderNumber="6" Mandatory="No"/>
            </def:ValueListDef>
            <def:ValueListDef OID="ValueList.SUPPAE.QNAM">
                <ItemRef ItemOID="SUPPAE.QNAM.AETRTEM" OrderNumber="1" Mandatory="No"/>
                <ItemRef ItemOID="SUPPAE.QNAM.HLGT" OrderNumber="2" Mandatory="No"/>
                <ItemRef ItemOID="SUPPAE.QNAM.HLT" OrderNumber="3" Mandatory="No"/>
                <ItemRef ItemOID="SUPPAE.QNAM.LLT" OrderNumber="4" Mandatory="No"/>
            </def:ValueListDef>
            <def:ValueListDef OID="ValueList.SUPPCM.QNAM">
                <ItemRef ItemOID="SUPPCM.QNAM.ATC4CODE" OrderNumber="5" Mandatory="No"/>
                <ItemRef ItemOID="SUPPCM.QNAM.ATC4TERM" OrderNumber="6" Mandatory="No"/>
                <ItemRef ItemOID="SUPPCM.QNAM.CPREFCD" OrderNumber="7" Mandatory="No"/>
                <ItemRef ItemOID="SUPPCM.QNAM.PDDREAS" OrderNumber="8" Mandatory="No"/>
                <ItemRef ItemOID="SUPPCM.QNAM.PDRESP" OrderNumber="9" Mandatory="No"/>
            </def:ValueListDef>
            <def:ValueListDef OID="ValueList.SUPPDM.QNAM">
                <ItemRef ItemOID="SUPPDM.QNAM.RACE1" OrderNumber="10" Mandatory="No"/>
                <ItemRef ItemOID="SUPPDM.QNAM.RACE2" OrderNumber="11" Mandatory="No"/>
                <ItemRef ItemOID="SUPPDM.QNAM.RACE3" OrderNumber="12" Mandatory="No"/>
                <ItemRef ItemOID="SUPPDM.QNAM.RACEOTH" OrderNumber="13" Mandatory="No"/>
                <ItemRef ItemOID="SUPPDM.QNAM.RAND" OrderNumber="14" Mandatory="No"/>
                <ItemRef ItemOID="SUPPDM.QNAM.RANDNO" OrderNumber="15" Mandatory="No"/>
                <ItemRef ItemOID="SUPPDM.QNAM.SAFETY" OrderNumber="16" Mandatory="No"/>
            </def:ValueListDef>
            <def:ValueListDef OID="ValueList.SUPPEG.QNAM">
                <ItemRef ItemOID="SUPPEG.QNAM.EGCLSIG" OrderNumber="17" Mandatory="No"/>
            </def:ValueListDef>
            <def:ValueListDef OID="ValueList.SUPPEX.QNAM">
                <ItemRef ItemOID="SUPPEX.QNAM.SMNO" OrderNumber="18" Mandatory="No"/>
            </def:ValueListDef>
            <def:ValueListDef OID="ValueList.SUPPLB.QNAM">
                <ItemRef ItemOID="SUPPLB.QNAM.LBCLSIG" OrderNumber="19" Mandatory="No"/>
            </def:ValueListDef>
            <def:ValueListDef OID="ValueList.SUPPQS.QNAM">
                <ItemRef ItemOID="SUPPQS.QNAM.RTRINIT" OrderNumber="20" Mandatory="No"/>
            </def:ValueListDef>
            <def:ValueListDef OID="ValueList.SUPPVS.QNAM">
                <ItemRef ItemOID="SUPPVS.QNAM.VSCLSIG" OrderNumber="21" Mandatory="No"/>
            </def:ValueListDef>
            <def:ValueListDef OID="ValueList.TS.TSPARMCD">
                <ItemRef ItemOID="TS.TSPARMCD.ADDON" OrderNumber="1" Mandatory="No"/>
                <ItemRef ItemOID="TS.TSPARMCD.AGEMAX" OrderNumber="2" Mandatory="No"/>
                <ItemRef ItemOID="TS.TSPARMCD.AGEMIN" OrderNumber="3" Mandatory="No"/>
                <ItemRef ItemOID="TS.TSPARMCD.AGESPAN" OrderNumber="4" Mandatory="No"/>
                <ItemRef ItemOID="TS.TSPARMCD.AGEU" OrderNumber="5" Mandatory="No"/>
                <ItemRef ItemOID="TS.TSPARMCD.DOSE" OrderNumber="6" Mandatory="No"/>
                <ItemRef ItemOID="TS.TSPARMCD.DOSFRQ" OrderNumber="7" Mandatory="No"/>
                <ItemRef ItemOID="TS.TSPARMCD.DOSU" OrderNumber="8" Mandatory="No"/>
                <ItemRef ItemOID="TS.TSPARMCD.LENGTH" OrderNumber="9" Mandatory="No"/>
                <ItemRef ItemOID="TS.TSPARMCD.OBJPRIM" OrderNumber="10" Mandatory="No"/>
                <ItemRef ItemOID="TS.TSPARMCD.OBJSEC" OrderNumber="11" Mandatory="No"/>
                <ItemRef ItemOID="TS.TSPARMCD.PLANSUB" OrderNumber="12" Mandatory="No"/>
                <ItemRef ItemOID="TS.TSPARMCD.RANDOM" OrderNumber="13" Mandatory="No"/>
                <ItemRef ItemOID="TS.TSPARMCD.ROUTE" OrderNumber="14" Mandatory="No"/>
                <ItemRef ItemOID="TS.TSPARMCD.SEXPOP" OrderNumber="15" Mandatory="No"/>
                <ItemRef ItemOID="TS.TSPARMCD.SPONSOR" OrderNumber="16" Mandatory="No"/>
                <ItemRef ItemOID="TS.TSPARMCD.TBLIND" OrderNumber="17" Mandatory="No"/>
                <ItemRef ItemOID="TS.TSPARMCD.TCNTRL" OrderNumber="18" Mandatory="No"/>
                <ItemRef ItemOID="TS.TSPARMCD.TINDTP" OrderNumber="19" Mandatory="No"/>
                <ItemRef ItemOID="TS.TSPARMCD.TITLE" OrderNumber="20" Mandatory="No"/>
                <ItemRef ItemOID="TS.TSPARMCD.TPHASE" OrderNumber="21" Mandatory="No"/>
                <ItemRef ItemOID="TS.TSPARMCD.TRT" OrderNumber="22" Mandatory="No"/>
                <ItemRef ItemOID="TS.TSPARMCD.TTYPE" OrderNumber="23" Mandatory="No"/>
            </def:ValueListDef>
            <ItemGroupDef OID="TA" Name="TA" Repeating="No" IsReferenceData="Yes" SASDatasetName="TA" Purpose="Tabulation" def:Label="Trial Arms" def:Class="Trial Design" def:Structure="One record per planned Element per Arm" def:DomainKeys="STUDYID, ARMCD, TAETORD" def:ArchiveLocationID="Location.TA">
                <ItemRef ItemOID="STUDYID" Mandatory="Yes" OrderNumber="1" Role="IDENTIFIER" RoleCodeListOID="RoleCodeList"/>
                <ItemRef ItemOID="DOMAIN" Mandatory="Yes" OrderNumber="2" Role="IDENTIFIER" RoleCodeListOID="RoleCodeList"/>
                <ItemRef ItemOID="TA.ARMCD" Mandatory="Yes" OrderNumber="3" Role="TOPIC" RoleCodeListOID="RoleCodeList"/>
                <ItemRef ItemOID="TA.ARM" Mandatory="Yes" OrderNumber="4" Role="SYNONYM QUALIFIER" RoleCodeListOID="RoleCodeList"/>
                <ItemRef ItemOID="TA.TAETORD" Mandatory="Yes" OrderNumber="5" Role="IDENTIFIER" RoleCodeListOID="RoleCodeList"/>
                <ItemRef ItemOID="TA.ETCD" Mandatory="Yes" OrderNumber="6" Role="RECORD QUALIFIER" RoleCodeListOID="RoleCodeList"/>
                <ItemRef ItemOID="TA.ELEMENT" Mandatory="No" OrderNumber="7" Role="SYNONYM QUALIFIER" RoleCodeListOID="RoleCodeList"/>
                <ItemRef ItemOID="TA.TABRANCH" Mandatory="No" OrderNumber="8" Role="RULE" RoleCodeListOID="RoleCodeList"/>
                <ItemRef ItemOID="TA.TATRANS" Mandatory="No" OrderNumber="9" Role="RULE" RoleCodeListOID="RoleCodeList"/>
                <ItemRef ItemOID="TA.EPOCH" Mandatory="Yes" OrderNumber="10" Role="TIMING" RoleCodeListOID="RoleCodeList"/>
                <def:leaf ID="Location.TA" xlink:href="ta.xpt">
                    <def:title>ta.xpt</def:title>
                </def:leaf>
            </ItemGroupDef>
            <ItemGroupDef OID="TE" Name="TE" Repeating="No" IsReferenceData="Yes" SASDatasetName="TE" Purpose="Tabulation" def:Label="Trial Elements" def:Class="Trial Design" def:Structure="One record per planned Element" def:DomainKeys="STUDYID, ETCD" def:ArchiveLocationID="Location.TE">
                <ItemRef ItemOID="STUDYID" Mandatory="Yes" OrderNumber="1" Role="IDENTIFIER" RoleCodeListOID="RoleCodeList"/>
                <ItemRef ItemOID="DOMAIN" Mandatory="Yes" OrderNumber="2" Role="IDENTIFIER" RoleCodeListOID="RoleCodeList"/>
                <ItemRef ItemOID="TE.ETCD" Mandatory="Yes" OrderNumber="3" Role="TOPIC" RoleCodeListOID="RoleCodeList"/>
                <ItemRef ItemOID="TE.ELEMENT" Mandatory="Yes" OrderNumber="4" Role="SYNONYM QUALIFIER" RoleCodeListOID="RoleCodeList"/>
                <ItemRef ItemOID="TE.TESTRL" Mandatory="Yes" OrderNumber="5" Role="RULE" RoleCodeListOID="RoleCodeList"/>
                <ItemRef ItemOID="TE.TEDUR" Mandatory="No" OrderNumber="6" Role="TIMING" RoleCodeListOID="RoleCodeList"/>
                <def:leaf ID="Location.TE" xlink:href="te.xpt">
                    <def:title>te.xpt</def:title>
                </def:leaf>
            </ItemGroupDef>
            <ItemGroupDef OID="TI" Name="TI" Repeating="No" IsReferenceData="Yes" SASDatasetName="TI" Purpose="Tabulation" def:Label="Trial Inclusion/Exclusion Criteria" def:Class="Trial Design" def:Structure="One record per I/E criterion" def:DomainKeys="STUDYID, IETESTCD" def:ArchiveLocationID="Location.TI">
                <ItemRef ItemOID="STUDYID" Mandatory="Yes" OrderNumber="1" Role="IDENTIFIER" RoleCodeListOID="RoleCodeList"/>
                <ItemRef ItemOID="DOMAIN" Mandatory="Yes" OrderNumber="2" Role="IDENTIFIER" RoleCodeListOID="RoleCodeList"/>
                <ItemRef ItemOID="TI.IETESTCD" Mandatory="Yes" OrderNumber="3" Role="TOPIC" RoleCodeListOID="RoleCodeList"/>
                <ItemRef ItemOID="TI.IETEST" Mandatory="Yes" OrderNumber="4" Role="SYNONYM QUALIFIER" RoleCodeListOID="RoleCodeList"/>
                <ItemRef ItemOID="TI.IECAT" Mandatory="Yes" OrderNumber="5" Role="GROUPING QUALIFIER" RoleCodeListOID="RoleCodeList"/>
                <def:leaf ID="Location.TI" xlink:href="ti.xpt">
                    <def:title>ti.xpt</def:title>
                </def:leaf>
            </ItemGroupDef>
            <ItemGroupDef OID="TS" Name="TS" Repeating="No" IsReferenceData="Yes" SASDatasetName="TS" Purpose="Tabulation" def:Label="Trial Summary" def:Class="Trial Design" def:Structure="One record per trial summary parameter value" def:DomainKeys="STUDYID, TSPARMCD, TSSEQ" def:ArchiveLocationID="Location.TS">
                <ItemRef ItemOID="STUDYID" Mandatory="Yes" OrderNumber="1" Role="IDENTIFIER" RoleCodeListOID="RoleCodeList"/>
                <ItemRef ItemOID="DOMAIN" Mandatory="Yes" OrderNumber="2" Role="IDENTIFIER" RoleCodeListOID="RoleCodeList"/>
                <ItemRef ItemOID="TS.TSSEQ" Mandatory="Yes" OrderNumber="3" Role="IDENTIFIER" RoleCodeListOID="RoleCodeList"/>
                <ItemRef ItemOID="TS.TSPARMCD" Mandatory="Yes" OrderNumber="4" Role="TOPIC" RoleCodeListOID="RoleCodeList"/>
                <ItemRef ItemOID="TS.TSPARM" Mandatory="Yes" OrderNumber="5" Role="SYNONYM QUALIFIER" RoleCodeListOID="RoleCodeList"/>
                <ItemRef ItemOID="TS.TSVAL" Mandatory="Yes" OrderNumber="6" Role="RESULT QUALIFIER" RoleCodeListOID="RoleCodeList"/>
                <def:leaf ID="Location.TS" xlink:href="ts.xpt">
                    <def:title>ts.xpt</def:title>
                </def:leaf>
            </ItemGroupDef>
            <ItemGroupDef OID="TV" Name="TV" Repeating="No" IsReferenceData="Yes" SASDatasetName="TV" Purpose="Tabulation" def:Label="Trial Visits" def:Class="Trial Design" def:Structure="One record per planned Visit per Arm" def:DomainKeys="STUDYID, VISITNUM, ARMCD" def:ArchiveLocationID="Location.TV">
                <ItemRef ItemOID="STUDYID" Mandatory="Yes" OrderNumber="1" Role="IDENTIFIER" RoleCodeListOID="RoleCodeList"/>
                <ItemRef ItemOID="DOMAIN" Mandatory="Yes" OrderNumber="2" Role="IDENTIFIER" RoleCodeListOID="RoleCodeList"/>
                <ItemRef ItemOID="TV.VISITNUM" Mandatory="Yes" OrderNumber="3" Role="TOPIC" RoleCodeListOID="RoleCodeList"/>
                <ItemRef ItemOID="TV.VISIT" Mandatory="No" OrderNumber="4" Role="SYNONYM QUALIFIER" RoleCodeListOID="RoleCodeList"/>
                <ItemRef ItemOID="TV.VISITDY" Mandatory="No" OrderNumber="5" Role="TIMING" RoleCodeListOID="RoleCodeList"/>
                <ItemRef ItemOID="TV.ARMCD" Mandatory="No" OrderNumber="6" Role="RECORD QUALIFIER" RoleCodeListOID="RoleCodeList"/>
                <ItemRef ItemOID="TV.TVSTRL" Mandatory="Yes" OrderNumber="7" Role="RULE" RoleCodeListOID="RoleCodeList"/>
                <def:leaf ID="Location.TV" xlink:href="tv.xpt">
                    <def:title>tv.xpt</def:title>
                </def:leaf>
            </ItemGroupDef>
            <ItemGroupDef OID="DM" Name="DM" Repeating="No" IsReferenceData="No" SASDatasetName="DM" Purpose="Tabulation" def:Label="Demographics" def:Class="Special Purpose" def:Structure="One record per subject" def:DomainKeys="STUDYID, USUBJID" def:ArchiveLocationID="Location.DM">
                <ItemRef ItemOID="STUDYID" Mandatory="Yes" OrderNumber="1" Role="IDENTIFIER" RoleCodeListOID="RoleCodeList"/>
                <ItemRef ItemOID="DOMAIN" Mandatory="Yes" OrderNumber="2" Role="IDENTIFIER" RoleCodeListOID="RoleCodeList"/>
                <ItemRef ItemOID="USUBJID" Mandatory="Yes" OrderNumber="3" Role="IDENTIFIER" RoleCodeListOID="RoleCodeList"/>
                <ItemRef ItemOID="DM.SUBJID" Mandatory="Yes" OrderNumber="4" Role="TOPIC" RoleCodeListOID="RoleCodeList"/>
                <ItemRef ItemOID="DM.RFSTDTC" Mandatory="No" OrderNumber="5" Role="RECORD QUALIFIER" RoleCodeListOID="RoleCodeList"/>
                <ItemRef ItemOID="DM.RFENDTC" Mandatory="No" OrderNumber="6" Role="RECORD QUALIFIER" RoleCodeListOID="RoleCodeList"/>
                <ItemRef ItemOID="DM.SITEID" Mandatory="Yes" OrderNumber="7" Role="RECORD QUALIFIER" RoleCodeListOID="RoleCodeList"/>
                <ItemRef ItemOID="DM.BRTHDTC" Mandatory="No" OrderNumber="8" Role="RECORD QUALIFIER" RoleCodeListOID="RoleCodeList"/>
                <ItemRef ItemOID="DM.AGE" Mandatory="No" OrderNumber="9" Role="RECORD QUALIFIER" RoleCodeListOID="RoleCodeList"/>
                <ItemRef ItemOID="DM.AGEU" Mandatory="No" OrderNumber="10" Role="VARIABLE QUALIFIER" RoleCodeListOID="RoleCodeList"/>
                <ItemRef ItemOID="DM.SEX" Mandatory="Yes" OrderNumber="11" Role="RECORD QUALIFIER" RoleCodeListOID="RoleCodeList"/>
                <ItemRef ItemOID="DM.RACE" Mandatory="No" OrderNumber="12" Role="RECORD QUALIFIER" RoleCodeListOID="RoleCodeList"/>
                <ItemRef ItemOID="DM.ETHNIC" Mandatory="No" OrderNumber="13" Role="RECORD QUALIFIER" RoleCodeListOID="RoleCodeList"/>
                <ItemRef ItemOID="DM.ARMCD" Mandatory="Yes" OrderNumber="14" Role="RECORD QUALIFIER" RoleCodeListOID="RoleCodeList"/>
                <ItemRef ItemOID="DM.ARM" Mandatory="Yes" OrderNumber="15" Role="SYNONYM QUALIFIER" RoleCodeListOID="RoleCodeList"/>
                <ItemRef ItemOID="DM.COUNTRY" Mandatory="Yes" OrderNumber="16" Role="RECORD QUALIFIER" RoleCodeListOID="RoleCodeList"/>
                <def:leaf ID="Location.DM" xlink:href="dm.xpt">
                    <def:title>dm.xpt</def:title>
                </def:leaf>
            </ItemGroupDef>
            <ItemGroupDef OID="SE" Name="SE" Repeating="Yes" IsReferenceData="No" SASDatasetName="SE" Purpose="Tabulation" def:Label="Subject Elements" def:Class="Special Purpose" def:Structure="One record per actual Element per subject" def:DomainKeys="STUDYID, USUBJID, SESTDTC, SEENDTC, ETCD" def:ArchiveLocationID="Location.SE">
                <ItemRef ItemOID="STUDYID" Mandatory="Yes" OrderNumber="1" Role="IDENTIFIER" RoleCodeListOID="RoleCodeList"/>
                <ItemRef ItemOID="DOMAIN" Mandatory="Yes" OrderNumber="2" Role="IDENTIFIER" RoleCodeListOID="RoleCodeList"/>
                <ItemRef ItemOID="USUBJID" Mandatory="Yes" OrderNumber="3" Role="IDENTIFIER" RoleCodeListOID="RoleCodeList"/>
                <ItemRef ItemOID="SE.SESEQ" Mandatory="Yes" OrderNumber="4" Role="IDENTIFIER" RoleCodeListOID="RoleCodeList"/>
                <ItemRef ItemOID="SE.ETCD" Mandatory="Yes" OrderNumber="5" Role="TOPIC" RoleCodeListOID="RoleCodeList"/>
                <ItemRef ItemOID="SE.ELEMENT" Mandatory="No" OrderNumber="6" Role="SYNONYM QUALIFIER" RoleCodeListOID="RoleCodeList"/>
                <ItemRef ItemOID="SE.SESTDTC" Mandatory="Yes" OrderNumber="7" Role="TIMING" RoleCodeListOID="RoleCodeList"/>
                <ItemRef ItemOID="SE.SEENDTC" Mandatory="No" OrderNumber="8" Role="TIMING" RoleCodeListOID="RoleCodeList"/>
                <ItemRef ItemOID="SE.TAETORD" Mandatory="No" OrderNumber="9" Role="TIMING" RoleCodeListOID="RoleCodeList"/>
                <def:leaf ID="Location.SE" xlink:href="se.xpt">
                    <def:title>se.xpt</def:title>
                </def:leaf>
            </ItemGroupDef>
            <ItemGroupDef OID="SV" Name="SV" Repeating="Yes" IsReferenceData="No" SASDatasetName="SV" Purpose="Tabulation" def:Label="Subject Visits" def:Class="Special Purpose" def:Structure="One record per actual visit per subject" def:DomainKeys="STUDYID, USUBJID, SVSTDTC, VISITNUM, SVUPDES" def:ArchiveLocationID="Location.SV">
                <ItemRef ItemOID="STUDYID" Mandatory="Yes" OrderNumber="1" Role="IDENTIFIER" RoleCodeListOID="RoleCodeList"/>
                <ItemRef ItemOID="DOMAIN" Mandatory="Yes" OrderNumber="2" Role="IDENTIFIER" RoleCodeListOID="RoleCodeList"/>
                <ItemRef ItemOID="USUBJID" Mandatory="Yes" OrderNumber="3" Role="IDENTIFIER" RoleCodeListOID="RoleCodeList"/>
                <ItemRef ItemOID="SV.VISITNUM" Mandatory="Yes" OrderNumber="4" Role="TOPIC" RoleCodeListOID="RoleCodeList"/>
                <ItemRef ItemOID="SV.VISIT" Mandatory="No" OrderNumber="5" Role="SYNONYM QUALIFIER" RoleCodeListOID="RoleCodeList"/>
                <ItemRef ItemOID="SV.VISITDY" Mandatory="No" OrderNumber="6" Role="TIMING" RoleCodeListOID="RoleCodeList"/>
                <ItemRef ItemOID="SV.SVSTDTC" Mandatory="No" OrderNumber="7" Role="TIMING" RoleCodeListOID="RoleCodeList"/>
                <ItemRef ItemOID="SV.SVENDTC" Mandatory="No" OrderNumber="8" Role="TIMING" RoleCodeListOID="RoleCodeList"/>
                <ItemRef ItemOID="SV.SVSTDY" Mandatory="No" OrderNumber="9" Role="TIMING" RoleCodeListOID="RoleCodeList"/>
                <ItemRef ItemOID="SV.SVUPDES" Mandatory="No" OrderNumber="10" Role="SYNONYM QUALIFIER" RoleCodeListOID="RoleCodeList"/>
                <def:leaf ID="Location.SV" xlink:href="sv.xpt">
                    <def:title>sv.xpt</def:title>
                </def:leaf>
            </ItemGroupDef>
            <ItemGroupDef OID="CM" Name="CM" Repeating="Yes" IsReferenceData="No" SASDatasetName="CM" Purpose="Tabulation" def:Label="Concomitant Medications" def:Class="Interventions" def:Structure="One record per recorded medication occurrence or constant-dosing interval per subject" def:DomainKeys="STUDYID, USUBJID, CMSTDTC, CMENDTC, CMCAT, CMTRT, CMDOSTXT, CMDOSU, CMINDC, CMDOSFRQ" def:ArchiveLocationID="Location.CM">
                <ItemRef ItemOID="STUDYID" Mandatory="Yes" OrderNumber="1" Role="IDENTIFIER" RoleCodeListOID="RoleCodeList"/>
                <ItemRef ItemOID="DOMAIN" Mandatory="Yes" OrderNumber="2" Role="IDENTIFIER" RoleCodeListOID="RoleCodeList"/>
                <ItemRef ItemOID="USUBJID" Mandatory="Yes" OrderNumber="3" Role="IDENTIFIER" RoleCodeListOID="RoleCodeList"/>
                <ItemRef ItemOID="CM.CMSEQ" Mandatory="Yes" OrderNumber="4" Role="IDENTIFIER" RoleCodeListOID="RoleCodeList"/>
                <ItemRef ItemOID="CM.CMTRT" Mandatory="Yes" OrderNumber="5" Role="TOPIC" RoleCodeListOID="RoleCodeList"/>
                <ItemRef ItemOID="CM.CMMODIFY" Mandatory="No" OrderNumber="6" Role="SYNONYM QUALIFIER" RoleCodeListOID="RoleCodeList"/>
                <ItemRef ItemOID="CM.CMDECOD" Mandatory="No" OrderNumber="7" Role="SYNONYM QUALIFIER" RoleCodeListOID="RoleCodeList"/>
                <ItemRef ItemOID="CM.CMCAT" Mandatory="No" OrderNumber="8" Role="GROUPING QUALIFIER" RoleCodeListOID="RoleCodeList"/>
                <ItemRef ItemOID="CM.CMINDC" Mandatory="No" OrderNumber="9" Role="RECORD QUALIFIER" RoleCodeListOID="RoleCodeList"/>
                <ItemRef ItemOID="CM.CMCLAS" Mandatory="No" OrderNumber="10" Role="VARIABLE QUALIFIER" RoleCodeListOID="RoleCodeList"/>
                <ItemRef ItemOID="CM.CMCLASCD" Mandatory="No" OrderNumber="11" Role="VARIABLE QUALIFIER" RoleCodeListOID="RoleCodeList"/>
                <ItemRef ItemOID="CM.CMDOSTXT" Mandatory="No" OrderNumber="12" Role="RECORD QUALIFIER" RoleCodeListOID="RoleCodeList"/>
                <ItemRef ItemOID="CM.CMDOSU" Mandatory="No" OrderNumber="13" Role="VARIABLE QUALIFIER" RoleCodeListOID="RoleCodeList"/>
                <ItemRef ItemOID="CM.CMDOSFRQ" Mandatory="No" OrderNumber="14" Role="VARIABLE QUALIFIER" RoleCodeListOID="RoleCodeList"/>
                <ItemRef ItemOID="CM.CMROUTE" Mandatory="No" OrderNumber="15" Role="VARIABLE QUALIFIER" RoleCodeListOID="RoleCodeList"/>
                <ItemRef ItemOID="CM.CMSTDTC" Mandatory="No" OrderNumber="16" Role="TIMING" RoleCodeListOID="RoleCodeList"/>
                <ItemRef ItemOID="CM.CMENDTC" Mandatory="No" OrderNumber="17" Role="TIMING" RoleCodeListOID="RoleCodeList"/>
                <ItemRef ItemOID="CM.CMSTDY" Mandatory="No" OrderNumber="18" Role="TIMING" RoleCodeListOID="RoleCodeList"/>
                <ItemRef ItemOID="CM.CMENDY" Mandatory="No" OrderNumber="19" Role="TIMING" RoleCodeListOID="RoleCodeList"/>
                <ItemRef ItemOID="CM.CMENRF" Mandatory="No" OrderNumber="20" Role="TIMING" RoleCodeListOID="RoleCodeList"/>
                <def:leaf ID="Location.CM" xlink:href="cm.xpt">
                    <def:title>cm.xpt</def:title>
                </def:leaf>
            </ItemGroupDef>
            <ItemGroupDef OID="EX" Name="EX" Repeating="Yes" IsReferenceData="No" SASDatasetName="EX" Purpose="Tabulation" def:Label="Exposure" def:Class="Interventions" def:Structure="One record per constant dosing interval per subject" def:DomainKeys="STUDYID, USUBJID, EXSTDTC, EXENDTC, EXTRT, EXDOSE" def:ArchiveLocationID="Location.EX">
                <ItemRef ItemOID="STUDYID" Mandatory="Yes" OrderNumber="1" Role="IDENTIFIER" RoleCodeListOID="RoleCodeList"/>
                <ItemRef ItemOID="DOMAIN" Mandatory="Yes" OrderNumber="2" Role="IDENTIFIER" RoleCodeListOID="RoleCodeList"/>
                <ItemRef ItemOID="USUBJID" Mandatory="Yes" OrderNumber="3" Role="IDENTIFIER" RoleCodeListOID="RoleCodeList"/>
                <ItemRef ItemOID="EX.EXSEQ" Mandatory="Yes" OrderNumber="4" Role="IDENTIFIER" RoleCodeListOID="RoleCodeList"/>
                <ItemRef ItemOID="EX.EXTRT" Mandatory="Yes" OrderNumber="5" Role="TOPIC" RoleCodeListOID="RoleCodeList"/>
                <ItemRef ItemOID="EX.EXDOSE" Mandatory="No" OrderNumber="6" Role="RECORD QUALIFIER" RoleCodeListOID="RoleCodeList"/>
                <ItemRef ItemOID="EX.EXDOSU" Mandatory="No" OrderNumber="7" Role="VARIABLE QUALIFIER" RoleCodeListOID="RoleCodeList"/>
                <ItemRef ItemOID="EX.EXDOSFRM" Mandatory="No" OrderNumber="8" Role="RECORD QUALIFIER" RoleCodeListOID="RoleCodeList"/>
                <ItemRef ItemOID="EX.EXDOSTOT" Mandatory="No" OrderNumber="9" Role="RECORD QUALIFIER" RoleCodeListOID="RoleCodeList"/>
                <ItemRef ItemOID="EX.EXSTDTC" Mandatory="No" OrderNumber="10" Role="TIMING" RoleCodeListOID="RoleCodeList"/>
                <ItemRef ItemOID="EX.EXENDTC" Mandatory="No" OrderNumber="11" Role="TIMING" RoleCodeListOID="RoleCodeList"/>
                <ItemRef ItemOID="EX.EXSTDY" Mandatory="No" OrderNumber="12" Role="TIMING" RoleCodeListOID="RoleCodeList"/>
                <ItemRef ItemOID="EX.EXENDY" Mandatory="No" OrderNumber="13" Role="TIMING" RoleCodeListOID="RoleCodeList"/>
                <def:leaf ID="Location.EX" xlink:href="ex.xpt">
                    <def:title>ex.xpt</def:title>
                </def:leaf>
            </ItemGroupDef>
            <ItemGroupDef OID="AE" Name="AE" Repeating="Yes" IsReferenceData="No" SASDatasetName="AE" Purpose="Tabulation" def:Label="Adverse Events" def:Class="Events" def:Structure="One record per adverse event per subject" def:DomainKeys="STUDYID, USUBJID, AEDECOD, AESTDTC" def:ArchiveLocationID="Location.AE">
                <ItemRef ItemOID="STUDYID" Mandatory="Yes" OrderNumber="1" Role="IDENTIFIER" RoleCodeListOID="RoleCodeList"/>
                <ItemRef ItemOID="DOMAIN" Mandatory="Yes" OrderNumber="2" Role="IDENTIFIER" RoleCodeListOID="RoleCodeList"/>
                <ItemRef ItemOID="USUBJID" Mandatory="Yes" OrderNumber="3" Role="IDENTIFIER" RoleCodeListOID="RoleCodeList"/>
                <ItemRef ItemOID="AE.AESEQ" Mandatory="Yes" OrderNumber="4" Role="IDENTIFIER" RoleCodeListOID="RoleCodeList"/>
                <ItemRef ItemOID="AE.AETERM" Mandatory="Yes" OrderNumber="5" Role="TOPIC" RoleCodeListOID="RoleCodeList"/>
                <ItemRef ItemOID="AE.AEMODIFY" Mandatory="No" OrderNumber="6" Role="SYNONYM QUALIFIER" RoleCodeListOID="RoleCodeList"/>
                <ItemRef ItemOID="AE.AEDECOD" Mandatory="Yes" OrderNumber="7" Role="SYNONYM QUALIFIER" RoleCodeListOID="RoleCodeList"/>
                <ItemRef ItemOID="AE.AEBODSYS" Mandatory="No" OrderNumber="8" Role="RECORD QUALIFIER" RoleCodeListOID="RoleCodeList"/>
                <ItemRef ItemOID="AE.AESEV" Mandatory="No" OrderNumber="9" Role="RECORD QUALIFIER" RoleCodeListOID="RoleCodeList"/>
                <ItemRef ItemOID="AE.AESER" Mandatory="No" OrderNumber="10" Role="RECORD QUALIFIER" RoleCodeListOID="RoleCodeList"/>
                <ItemRef ItemOID="AE.AEACN" Mandatory="No" OrderNumber="11" Role="RECORD QUALIFIER" RoleCodeListOID="RoleCodeList"/>
                <ItemRef ItemOID="AE.AEREL" Mandatory="No" OrderNumber="12" Role="RECORD QUALIFIER" RoleCodeListOID="RoleCodeList"/>
                <ItemRef ItemOID="AE.AESTDTC" Mandatory="No" OrderNumber="13" Role="TIMING" RoleCodeListOID="RoleCodeList"/>
                <ItemRef ItemOID="AE.AEENDTC" Mandatory="No" OrderNumber="14" Role="TIMING" RoleCodeListOID="RoleCodeList"/>
                <ItemRef ItemOID="AE.AESTDY" Mandatory="No" OrderNumber="15" Role="TIMING" RoleCodeListOID="RoleCodeList"/>
                <ItemRef ItemOID="AE.AEENDY" Mandatory="No" OrderNumber="16" Role="TIMING" RoleCodeListOID="RoleCodeList"/>
                <ItemRef ItemOID="AE.AEENRF" Mandatory="No" OrderNumber="17" Role="TIMING" RoleCodeListOID="RoleCodeList"/>
                <def:leaf ID="Location.AE" xlink:href="ae.xpt">
                    <def:title>ae.xpt</def:title>
                </def:leaf>
            </ItemGroupDef>
            <ItemGroupDef OID="DS" Name="DS" Repeating="Yes" IsReferenceData="No" SASDatasetName="DS" Purpose="Tabulation" def:Label="Disposition" def:Class="Events" def:Structure="One record per disposition status or protocol milestone per subject" def:DomainKeys="STUDYID, USUBJID, DSCAT, DSDECOD, DSSTDY, DSSTDTC" def:ArchiveLocationID="Location.DS">
                <ItemRef ItemOID="STUDYID" Mandatory="Yes" OrderNumber="1" Role="IDENTIFIER" RoleCodeListOID="RoleCodeList"/>
                <ItemRef ItemOID="DOMAIN" Mandatory="Yes" OrderNumber="2" Role="IDENTIFIER" RoleCodeListOID="RoleCodeList"/>
                <ItemRef ItemOID="USUBJID" Mandatory="Yes" OrderNumber="3" Role="IDENTIFIER" RoleCodeListOID="RoleCodeList"/>
                <ItemRef ItemOID="DS.DSSEQ" Mandatory="Yes" OrderNumber="4" Role="IDENTIFIER" RoleCodeListOID="RoleCodeList"/>
                <ItemRef ItemOID="DS.DSTERM" Mandatory="Yes" OrderNumber="5" Role="TOPIC" RoleCodeListOID="RoleCodeList"/>
                <ItemRef ItemOID="DS.DSDECOD" Mandatory="Yes" OrderNumber="6" Role="SYNONYM QUALIFIER" RoleCodeListOID="RoleCodeList"/>
                <ItemRef ItemOID="DS.DSCAT" Mandatory="No" OrderNumber="7" Role="GROUPING QUALIFIER" RoleCodeListOID="RoleCodeList"/>
                <ItemRef ItemOID="DS.EPOCH" Mandatory="No" OrderNumber="8" Role="TIMING" RoleCodeListOID="RoleCodeList"/>
                <ItemRef ItemOID="DS.DSSTDTC" Mandatory="No" OrderNumber="9" Role="TIMING" RoleCodeListOID="RoleCodeList"/>
                <ItemRef ItemOID="DS.DSSTDY" Mandatory="No" OrderNumber="10" Role="TIMING" RoleCodeListOID="RoleCodeList"/>
                <def:leaf ID="Location.DS" xlink:href="ds.xpt">
                    <def:title>ds.xpt</def:title>
                </def:leaf>
            </ItemGroupDef>
            <ItemGroupDef OID="MH" Name="MH" Repeating="Yes" IsReferenceData="No" SASDatasetName="MH" Purpose="Tabulation" def:Label="Medical History" def:Class="Events" def:Structure="One record per medical history event per subject" def:DomainKeys="STUDYID, USUBJID, MHCAT, MHTERM, MHDTC, MHSTDTC" def:ArchiveLocationID="Location.MH">
                <ItemRef ItemOID="STUDYID" Mandatory="Yes" OrderNumber="1" Role="IDENTIFIER" RoleCodeListOID="RoleCodeList"/>
                <ItemRef ItemOID="DOMAIN" Mandatory="Yes" OrderNumber="2" Role="IDENTIFIER" RoleCodeListOID="RoleCodeList"/>
                <ItemRef ItemOID="USUBJID" Mandatory="Yes" OrderNumber="3" Role="IDENTIFIER" RoleCodeListOID="RoleCodeList"/>
                <ItemRef ItemOID="MH.MHSEQ" Mandatory="Yes" OrderNumber="4" Role="IDENTIFIER" RoleCodeListOID="RoleCodeList"/>
                <ItemRef ItemOID="MH.MHTERM" Mandatory="Yes" OrderNumber="5" Role="TOPIC" RoleCodeListOID="RoleCodeList"/>
                <ItemRef ItemOID="MH.MHCAT" Mandatory="No" OrderNumber="6" Role="GROUPING QUALIFIER" RoleCodeListOID="RoleCodeList"/>
                <ItemRef ItemOID="MH.MHPRESP" Mandatory="No" OrderNumber="7" Role="RECORD QUALIFIER" RoleCodeListOID="RoleCodeList"/>
                <ItemRef ItemOID="MH.MHOCCUR" Mandatory="No" OrderNumber="8" Role="RECORD QUALIFIER" RoleCodeListOID="RoleCodeList"/>
                <ItemRef ItemOID="MH.MHBODSYS" Mandatory="No" OrderNumber="9" Role="RECORD QUALIFIER" RoleCodeListOID="RoleCodeList"/>
                <ItemRef ItemOID="MH.MHDTC" Mandatory="No" OrderNumber="10" Role="TIMING" RoleCodeListOID="RoleCodeList"/>
                <ItemRef ItemOID="MH.MHSTDTC" Mandatory="No" OrderNumber="11" Role="TIMING" RoleCodeListOID="RoleCodeList"/>
                <ItemRef ItemOID="MH.MHENRF" Mandatory="No" OrderNumber="12" Role="TIMING" RoleCodeListOID="RoleCodeList"/>
                <def:leaf ID="Location.MH" xlink:href="mh.xpt">
                    <def:title>mh.xpt</def:title>
                </def:leaf>
            </ItemGroupDef>
            <ItemGroupDef OID="DA" Name="DA" Repeating="Yes" IsReferenceData="No" SASDatasetName="DA" Purpose="Tabulation" def:Label="Drug Accountability" def:Class="Findings" def:Structure="One record per drug accountability finding per subject" def:DomainKeys="STUDYID, USUBJID, DATESTCD, DADTC" def:ArchiveLocationID="Location.DA">
                <ItemRef ItemOID="STUDYID" Mandatory="Yes" OrderNumber="1" Role="IDENTIFIER" RoleCodeListOID="RoleCodeList"/>
                <ItemRef ItemOID="DOMAIN" Mandatory="Yes" OrderNumber="2" Role="IDENTIFIER" RoleCodeListOID="RoleCodeList"/>
                <ItemRef ItemOID="USUBJID" Mandatory="Yes" OrderNumber="3" Role="IDENTIFIER" RoleCodeListOID="RoleCodeList"/>
                <ItemRef ItemOID="DA.DASEQ" Mandatory="Yes" OrderNumber="4" Role="IDENTIFIER" RoleCodeListOID="RoleCodeList"/>
                <ItemRef ItemOID="DA.DATESTCD" Mandatory="Yes" OrderNumber="5" Role="TOPIC" RoleCodeListOID="RoleCodeList"/>
                <ItemRef ItemOID="DA.DATEST" Mandatory="Yes" OrderNumber="6" Role="SYNONYM QUALIFIER" RoleCodeListOID="RoleCodeList"/>
                <ItemRef ItemOID="DA.DAORRES" Mandatory="No" OrderNumber="7" Role="RESULT QUALIFIER" RoleCodeListOID="RoleCodeList"/>
                <ItemRef ItemOID="DA.DAORRESU" Mandatory="No" OrderNumber="8" Role="VARIABLE QUALIFIER" RoleCodeListOID="RoleCodeList"/>
                <ItemRef ItemOID="DA.DASTRESC" Mandatory="No" OrderNumber="9" Role="RESULT QUALIFIER" RoleCodeListOID="RoleCodeList"/>
                <ItemRef ItemOID="DA.DASTRESN" Mandatory="No" OrderNumber="10" Role="RESULT QUALIFIER" RoleCodeListOID="RoleCodeList"/>
                <ItemRef ItemOID="DA.DASTRESU" Mandatory="No" OrderNumber="11" Role="VARIABLE QUALIFIER" RoleCodeListOID="RoleCodeList"/>
                <ItemRef ItemOID="DA.VISITNUM" Mandatory="No" OrderNumber="12" Role="TIMING" RoleCodeListOID="RoleCodeList"/>
                <ItemRef ItemOID="DA.VISIT" Mandatory="No" OrderNumber="13" Role="TIMING" RoleCodeListOID="RoleCodeList"/>
                <ItemRef ItemOID="DA.VISITDY" Mandatory="No" OrderNumber="14" Role="TIMING" RoleCodeListOID="RoleCodeList"/>
                <ItemRef ItemOID="DA.DADTC" Mandatory="No" OrderNumber="15" Role="TIMING" RoleCodeListOID="RoleCodeList"/>
                <ItemRef ItemOID="DA.DADY" Mandatory="No" OrderNumber="16" Role="TIMING" RoleCodeListOID="RoleCodeList"/>
                <def:leaf ID="Location.DA" xlink:href="da.xpt">
                    <def:title>da.xpt</def:title>
                </def:leaf>
            </ItemGroupDef>
            <ItemGroupDef OID="EG" Name="EG" Repeating="Yes" IsReferenceData="No" SASDatasetName="EG" Purpose="Tabulation" def:Label="ECG Test Results" def:Class="Findings" def:Structure="One record per ECG observation per visit per subject" def:DomainKeys="STUDYID, USUBJID, EGTESTCD, EGDTC, VISITNUM" def:ArchiveLocationID="Location.EG">
                <ItemRef ItemOID="STUDYID" Mandatory="Yes" OrderNumber="1" Role="IDENTIFIER" RoleCodeListOID="RoleCodeList"/>
                <ItemRef ItemOID="DOMAIN" Mandatory="Yes" OrderNumber="2" Role="IDENTIFIER" RoleCodeListOID="RoleCodeList"/>
                <ItemRef ItemOID="USUBJID" Mandatory="Yes" OrderNumber="3" Role="IDENTIFIER" RoleCodeListOID="RoleCodeList"/>
                <ItemRef ItemOID="EG.EGSEQ" Mandatory="Yes" OrderNumber="4" Role="IDENTIFIER" RoleCodeListOID="RoleCodeList"/>
                <ItemRef ItemOID="EG.EGSPID" Mandatory="No" OrderNumber="5" Role="IDENTIFIER" RoleCodeListOID="RoleCodeList"/>
                <ItemRef ItemOID="EG.EGTESTCD" Mandatory="Yes" OrderNumber="6" Role="TOPIC" RoleCodeListOID="RoleCodeList"/>
                <ItemRef ItemOID="EG.EGTEST" Mandatory="Yes" OrderNumber="7" Role="SYNONYM QUALIFIER" RoleCodeListOID="RoleCodeList"/>
                <ItemRef ItemOID="EG.EGPOS" Mandatory="No" OrderNumber="8" Role="RECORD QUALIFIER" RoleCodeListOID="RoleCodeList"/>
                <ItemRef ItemOID="EG.EGORRES" Mandatory="No" OrderNumber="9" Role="RESULT QUALIFIER" RoleCodeListOID="RoleCodeList"/>
                <ItemRef ItemOID="EG.EGORRESU" Mandatory="No" OrderNumber="10" Role="VARIABLE QUALIFIER" RoleCodeListOID="RoleCodeList"/>
                <ItemRef ItemOID="EG.EGSTRESC" Mandatory="No" OrderNumber="11" Role="RESULT QUALIFIER" RoleCodeListOID="RoleCodeList"/>
                <ItemRef ItemOID="EG.EGSTRESN" Mandatory="No" OrderNumber="12" Role="RESULT QUALIFIER" RoleCodeListOID="RoleCodeList"/>
                <ItemRef ItemOID="EG.EGSTRESU" Mandatory="No" OrderNumber="13" Role="VARIABLE QUALIFIER" RoleCodeListOID="RoleCodeList"/>
                <ItemRef ItemOID="EG.EGBLFL" Mandatory="No" OrderNumber="14" Role="RECORD QUALIFIER" RoleCodeListOID="RoleCodeList"/>
                <ItemRef ItemOID="EG.EGDRVFL" Mandatory="No" OrderNumber="15" Role="RECORD QUALIFIER" RoleCodeListOID="RoleCodeList"/>
                <ItemRef ItemOID="EG.EGEVAL" Mandatory="No" OrderNumber="16" Role="RECORD QUALIFIER" RoleCodeListOID="RoleCodeList"/>
                <ItemRef ItemOID="EG.VISITNUM" Mandatory="No" OrderNumber="17" Role="TIMING" RoleCodeListOID="RoleCodeList"/>
                <ItemRef ItemOID="EG.VISIT" Mandatory="No" OrderNumber="18" Role="TIMING" RoleCodeListOID="RoleCodeList"/>
                <ItemRef ItemOID="EG.VISITDY" Mandatory="No" OrderNumber="19" Role="TIMING" RoleCodeListOID="RoleCodeList"/>
                <ItemRef ItemOID="EG.EGDTC" Mandatory="No" OrderNumber="20" Role="TIMING" RoleCodeListOID="RoleCodeList"/>
                <ItemRef ItemOID="EG.EGDY" Mandatory="No" OrderNumber="21" Role="TIMING" RoleCodeListOID="RoleCodeList"/>
                <def:leaf ID="Location.EG" xlink:href="eg.xpt">
                    <def:title>eg.xpt</def:title>
                </def:leaf>
            </ItemGroupDef>
            <ItemGroupDef OID="IE" Name="IE" Repeating="Yes" IsReferenceData="No" SASDatasetName="IE" Purpose="Tabulation" def:Label="Inclusion/Exclusion Criteria Not Met" def:Class="Findings" def:Structure="One record per inclusion/exclusion criterion not met per subject" def:DomainKeys="STUDYID, USUBJID, IETESTCD" def:ArchiveLocationID="Location.IE">
                <ItemRef ItemOID="STUDYID" Mandatory="Yes" OrderNumber="1" Role="IDENTIFIER" RoleCodeListOID="RoleCodeList"/>
                <ItemRef ItemOID="DOMAIN" Mandatory="Yes" OrderNumber="2" Role="IDENTIFIER" RoleCodeListOID="RoleCodeList"/>
                <ItemRef ItemOID="USUBJID" Mandatory="Yes" OrderNumber="3" Role="IDENTIFIER" RoleCodeListOID="RoleCodeList"/>
                <ItemRef ItemOID="IE.IESEQ" Mandatory="Yes" OrderNumber="4" Role="IDENTIFIER" RoleCodeListOID="RoleCodeList"/>
                <ItemRef ItemOID="IE.IETESTCD" Mandatory="Yes" OrderNumber="5" Role="TOPIC" RoleCodeListOID="RoleCodeList"/>
                <ItemRef ItemOID="IE.IETEST" Mandatory="Yes" OrderNumber="6" Role="SYNONYM QUALIFIER" RoleCodeListOID="RoleCodeList"/>
                <ItemRef ItemOID="IE.IECAT" Mandatory="Yes" OrderNumber="7" Role="GROUPING QUALIFIER" RoleCodeListOID="RoleCodeList"/>
                <ItemRef ItemOID="IE.IEORRES" Mandatory="Yes" OrderNumber="8" Role="RESULT QUALIFIER" RoleCodeListOID="RoleCodeList"/>
                <ItemRef ItemOID="IE.IESTRESC" Mandatory="Yes" OrderNumber="9" Role="RESULT QUALIFIER" RoleCodeListOID="RoleCodeList"/>
                <ItemRef ItemOID="IE.VISITNUM" Mandatory="No" OrderNumber="10" Role="TIMING" RoleCodeListOID="RoleCodeList"/>
                <ItemRef ItemOID="IE.VISIT" Mandatory="No" OrderNumber="11" Role="TIMING" RoleCodeListOID="RoleCodeList"/>
                <ItemRef ItemOID="IE.IEDTC" Mandatory="No" OrderNumber="12" Role="TIMING" RoleCodeListOID="RoleCodeList"/>
                <def:leaf ID="Location.IE" xlink:href="ie.xpt">
                    <def:title>ie.xpt</def:title>
                </def:leaf>
            </ItemGroupDef>
            <ItemGroupDef OID="LB" Name="LB" Repeating="Yes" IsReferenceData="No" SASDatasetName="LB" Purpose="Tabulation" def:Label="Laboratory Test Results" def:Class="Findings" def:Structure="One record per analyte per visit per subject" def:DomainKeys="STUDYID, USUBJID, LBCAT, LBMETHOD, LBTESTCD, LBDTC, VISITNUM" def:ArchiveLocationID="Location.LB">
                <ItemRef ItemOID="STUDYID" Mandatory="Yes" OrderNumber="1" Role="IDENTIFIER" RoleCodeListOID="RoleCodeList"/>
                <ItemRef ItemOID="DOMAIN" Mandatory="Yes" OrderNumber="2" Role="IDENTIFIER" RoleCodeListOID="RoleCodeList"/>
                <ItemRef ItemOID="USUBJID" Mandatory="Yes" OrderNumber="3" Role="IDENTIFIER" RoleCodeListOID="RoleCodeList"/>
                <ItemRef ItemOID="LB.LBSEQ" Mandatory="Yes" OrderNumber="4" Role="IDENTIFIER" RoleCodeListOID="RoleCodeList"/>
                <ItemRef ItemOID="LB.LBREFID" Mandatory="No" OrderNumber="5" Role="IDENTIFIER" RoleCodeListOID="RoleCodeList"/>
                <ItemRef ItemOID="LB.LBTESTCD" Mandatory="Yes" OrderNumber="6" Role="TOPIC" RoleCodeListOID="RoleCodeList"/>
                <ItemRef ItemOID="LB.LBTEST" Mandatory="Yes" OrderNumber="7" Role="SYNONYM QUALIFIER" RoleCodeListOID="RoleCodeList"/>
                <ItemRef ItemOID="LB.LBCAT" Mandatory="No" OrderNumber="8" Role="GROUPING QUALIFIER" RoleCodeListOID="RoleCodeList"/>
                <ItemRef ItemOID="LB.LBORRES" Mandatory="No" OrderNumber="9" Role="RESULT QUALIFIER" RoleCodeListOID="RoleCodeList"/>
                <ItemRef ItemOID="LB.LBORRESU" Mandatory="No" OrderNumber="10" Role="VARIABLE QUALIFIER" RoleCodeListOID="RoleCodeList"/>
                <ItemRef ItemOID="LB.LBORNRLO" Mandatory="No" OrderNumber="11" Role="VARIABLE QUALIFIER" RoleCodeListOID="RoleCodeList"/>
                <ItemRef ItemOID="LB.LBORNRHI" Mandatory="No" OrderNumber="12" Role="VARIABLE QUALIFIER" RoleCodeListOID="RoleCodeList"/>
                <ItemRef ItemOID="LB.LBSTRESC" Mandatory="No" OrderNumber="13" Role="RESULT QUALIFIER" RoleCodeListOID="RoleCodeList"/>
                <ItemRef ItemOID="LB.LBSTRESN" Mandatory="No" OrderNumber="14" Role="RESULT QUALIFIER" RoleCodeListOID="RoleCodeList"/>
                <ItemRef ItemOID="LB.LBSTRESU" Mandatory="No" OrderNumber="15" Role="VARIABLE QUALIFIER" RoleCodeListOID="RoleCodeList"/>
                <ItemRef ItemOID="LB.LBSTNRLO" Mandatory="No" OrderNumber="16" Role="VARIABLE QUALIFIER" RoleCodeListOID="RoleCodeList"/>
                <ItemRef ItemOID="LB.LBSTNRHI" Mandatory="No" OrderNumber="17" Role="VARIABLE QUALIFIER" RoleCodeListOID="RoleCodeList"/>
                <ItemRef ItemOID="LB.LBSTNRC" Mandatory="No" OrderNumber="18" Role="VARIABLE QUALIFIER" RoleCodeListOID="RoleCodeList"/>
                <ItemRef ItemOID="LB.LBNRIND" Mandatory="No" OrderNumber="19" Role="VARIABLE QUALIFIER" RoleCodeListOID="RoleCodeList"/>
                <ItemRef ItemOID="LB.LBSPEC" Mandatory="No" OrderNumber="20" Role="RECORD QUALIFIER" RoleCodeListOID="RoleCodeList"/>
                <ItemRef ItemOID="LB.LBMETHOD" Mandatory="No" OrderNumber="21" Role="RECORD QUALIFIER" RoleCodeListOID="RoleCodeList"/>
                <ItemRef ItemOID="LB.LBBLFL" Mandatory="No" OrderNumber="22" Role="RECORD QUALIFIER" RoleCodeListOID="RoleCodeList"/>
                <ItemRef ItemOID="LB.LBFAST" Mandatory="No" OrderNumber="23" Role="RECORD QUALIFIER" RoleCodeListOID="RoleCodeList"/>
                <ItemRef ItemOID="LB.VISITNUM" Mandatory="No" OrderNumber="24" Role="TIMING" RoleCodeListOID="RoleCodeList"/>
                <ItemRef ItemOID="LB.VISIT" Mandatory="No" OrderNumber="25" Role="TIMING" RoleCodeListOID="RoleCodeList"/>
                <ItemRef ItemOID="LB.VISITDY" Mandatory="No" OrderNumber="26" Role="TIMING" RoleCodeListOID="RoleCodeList"/>
                <ItemRef ItemOID="LB.LBDTC" Mandatory="No" OrderNumber="27" Role="TIMING" RoleCodeListOID="RoleCodeList"/>
                <ItemRef ItemOID="LB.LBDY" Mandatory="No" OrderNumber="28" Role="TIMING" RoleCodeListOID="RoleCodeList"/>
                <def:leaf ID="Location.LB" xlink:href="lb.xpt">
                    <def:title>lb.xpt</def:title>
                </def:leaf>
            </ItemGroupDef>
            <ItemGroupDef OID="PE" Name="PE" Repeating="Yes" IsReferenceData="No" SASDatasetName="PE" Purpose="Tabulation" def:Label="Physical Examination" def:Class="Findings" def:Structure="One record per body system or abnormality per visit per subject" def:DomainKeys="STUDYID, USUBJID, PETESTCD, PEDTC, VISITNUM" def:ArchiveLocationID="Location.PE">
                <ItemRef ItemOID="STUDYID" Mandatory="Yes" OrderNumber="1" Role="IDENTIFIER" RoleCodeListOID="RoleCodeList"/>
                <ItemRef ItemOID="DOMAIN" Mandatory="Yes" OrderNumber="2" Role="IDENTIFIER" RoleCodeListOID="RoleCodeList"/>
                <ItemRef ItemOID="USUBJID" Mandatory="Yes" OrderNumber="3" Role="IDENTIFIER" RoleCodeListOID="RoleCodeList"/>
                <ItemRef ItemOID="PE.PESEQ" Mandatory="Yes" OrderNumber="4" Role="IDENTIFIER" RoleCodeListOID="RoleCodeList"/>
                <ItemRef ItemOID="PE.PETESTCD" Mandatory="Yes" OrderNumber="5" Role="TOPIC" RoleCodeListOID="RoleCodeList"/>
                <ItemRef ItemOID="PE.PETEST" Mandatory="Yes" OrderNumber="6" Role="SYNONYM QUALIFIER" RoleCodeListOID="RoleCodeList"/>
                <ItemRef ItemOID="PE.PEORRES" Mandatory="No" OrderNumber="7" Role="RESULT QUALIFIER" RoleCodeListOID="RoleCodeList"/>
                <ItemRef ItemOID="PE.PESTRESC" Mandatory="No" OrderNumber="8" Role="RESULT QUALIFIER" RoleCodeListOID="RoleCodeList"/>
                <ItemRef ItemOID="PE.VISITNUM" Mandatory="No" OrderNumber="9" Role="TIMING" RoleCodeListOID="RoleCodeList"/>
                <ItemRef ItemOID="PE.VISIT" Mandatory="No" OrderNumber="10" Role="TIMING" RoleCodeListOID="RoleCodeList"/>
                <ItemRef ItemOID="PE.VISITDY" Mandatory="No" OrderNumber="11" Role="TIMING" RoleCodeListOID="RoleCodeList"/>
                <ItemRef ItemOID="PE.PEDTC" Mandatory="No" OrderNumber="12" Role="TIMING" RoleCodeListOID="RoleCodeList"/>
                <ItemRef ItemOID="PE.PEDY" Mandatory="No" OrderNumber="13" Role="TIMING" RoleCodeListOID="RoleCodeList"/>
                <def:leaf ID="Location.PE" xlink:href="pe.xpt">
                    <def:title>pe.xpt</def:title>
                </def:leaf>
            </ItemGroupDef>
            <ItemGroupDef OID="QSCG" Name="QS" Repeating="Yes" IsReferenceData="No" SASDatasetName="QSCG" Purpose="Tabulation" def:Label="Questionnaire-QSCG" def:Class="Findings" def:Structure="One record per questionnaire per question per visit per subject" def:DomainKeys="STUDYID, USUBJID, QSCAT, QSTESTCD, QSDTC, VISITNUM" def:ArchiveLocationID="Location.QSCG">
                <ItemRef ItemOID="STUDYID" Mandatory="Yes" OrderNumber="1" Role="IDENTIFIER" RoleCodeListOID="RoleCodeList"/>
                <ItemRef ItemOID="DOMAIN" Mandatory="Yes" OrderNumber="2" Role="IDENTIFIER" RoleCodeListOID="RoleCodeList"/>
                <ItemRef ItemOID="USUBJID" Mandatory="Yes" OrderNumber="3" Role="IDENTIFIER" RoleCodeListOID="RoleCodeList"/>
                <ItemRef ItemOID="QS.QSSEQ" Mandatory="Yes" OrderNumber="4" Role="IDENTIFIER" RoleCodeListOID="RoleCodeList"/>
                <ItemRef ItemOID="QS.QSTESTCD" Mandatory="Yes" OrderNumber="5" Role="TOPIC" RoleCodeListOID="RoleCodeList"/>
                <ItemRef ItemOID="QS.QSTEST" Mandatory="Yes" OrderNumber="6" Role="SYNONYM QUALIFIER" RoleCodeListOID="RoleCodeList"/>
                <ItemRef ItemOID="QS.QSCAT" Mandatory="Yes" OrderNumber="7" Role="GROUPING QUALIFIER" RoleCodeListOID="RoleCodeList"/>
                <ItemRef ItemOID="QS.QSORRES" Mandatory="No" OrderNumber="9" Role="RESULT QUALIFIER" RoleCodeListOID="RoleCodeList"/>
                <ItemRef ItemOID="QS.QSSTRESC" Mandatory="No" OrderNumber="10" Role="RESULT QUALIFIER" RoleCodeListOID="RoleCodeList"/>
                <ItemRef ItemOID="QS.QSSTRESN" Mandatory="No" OrderNumber="11" Role="RESULT QUALIFIER" RoleCodeListOID="RoleCodeList"/>
                <ItemRef ItemOID="QS.VISITNUM" Mandatory="No" OrderNumber="13" Role="TIMING" RoleCodeListOID="RoleCodeList"/>
                <ItemRef ItemOID="QS.VISIT" Mandatory="No" OrderNumber="14" Role="TIMING" RoleCodeListOID="RoleCodeList"/>
                <ItemRef ItemOID="QS.VISITDY" Mandatory="No" OrderNumber="15" Role="TIMING" RoleCodeListOID="RoleCodeList"/>
                <ItemRef ItemOID="QS.QSDTC" Mandatory="No" OrderNumber="16" Role="TIMING" RoleCodeListOID="RoleCodeList"/>
                <ItemRef ItemOID="QS.QSDY" Mandatory="No" OrderNumber="17" Role="TIMING" RoleCodeListOID="RoleCodeList"/>
                <def:leaf ID="Location.QSCG" xlink:href="qscg.xpt">
                    <def:title>qscg.xpt</def:title>
                </def:leaf>
            </ItemGroupDef>
            <ItemGroupDef OID="QSCS" Name="QS" Repeating="Yes" IsReferenceData="No" SASDatasetName="QSCS" Purpose="Tabulation" def:Label="Questionnaire-QSCS" def:Class="Findings" def:Structure="One record per questionnaire per question per visit per subject" def:DomainKeys="STUDYID, USUBJID, QSCAT, QSTESTCD, QSDTC, VISITNUM" def:ArchiveLocationID="Location.QSCS">
                <ItemRef ItemOID="STUDYID" Mandatory="Yes" OrderNumber="1" Role="IDENTIFIER" RoleCodeListOID="RoleCodeList"/>
                <ItemRef ItemOID="DOMAIN" Mandatory="Yes" OrderNumber="2" Role="IDENTIFIER" RoleCodeListOID="RoleCodeList"/>
                <ItemRef ItemOID="USUBJID" Mandatory="Yes" OrderNumber="3" Role="IDENTIFIER" RoleCodeListOID="RoleCodeList"/>
                <ItemRef ItemOID="QS.QSSEQ" Mandatory="Yes" OrderNumber="4" Role="IDENTIFIER" RoleCodeListOID="RoleCodeList"/>
                <ItemRef ItemOID="QS.QSTESTCD" Mandatory="Yes" OrderNumber="5" Role="TOPIC" RoleCodeListOID="RoleCodeList"/>
                <ItemRef ItemOID="QS.QSTEST" Mandatory="Yes" OrderNumber="6" Role="SYNONYM QUALIFIER" RoleCodeListOID="RoleCodeList"/>
                <ItemRef ItemOID="QS.QSCAT" Mandatory="Yes" OrderNumber="7" Role="GROUPING QUALIFIER" RoleCodeListOID="RoleCodeList"/>
                <ItemRef ItemOID="QS.QSSCAT" Mandatory="No" OrderNumber="8" Role="GROUPING QUALIFIER" RoleCodeListOID="RoleCodeList"/>
                <ItemRef ItemOID="QS.QSORRES" Mandatory="No" OrderNumber="9" Role="RESULT QUALIFIER" RoleCodeListOID="RoleCodeList"/>
                <ItemRef ItemOID="QS.QSSTRESC" Mandatory="No" OrderNumber="10" Role="RESULT QUALIFIER" RoleCodeListOID="RoleCodeList"/>
                <ItemRef ItemOID="QS.QSSTRESN" Mandatory="No" OrderNumber="11" Role="RESULT QUALIFIER" RoleCodeListOID="RoleCodeList"/>
                <ItemRef ItemOID="QS.QSBLFL" Mandatory="No" OrderNumber="12" Role="RECORD QUALIFIER" RoleCodeListOID="RoleCodeList"/>
                <ItemRef ItemOID="QS.VISITNUM" Mandatory="No" OrderNumber="13" Role="TIMING" RoleCodeListOID="RoleCodeList"/>
                <ItemRef ItemOID="QS.VISIT" Mandatory="No" OrderNumber="14" Role="TIMING" RoleCodeListOID="RoleCodeList"/>
                <ItemRef ItemOID="QS.VISITDY" Mandatory="No" OrderNumber="15" Role="TIMING" RoleCodeListOID="RoleCodeList"/>
                <ItemRef ItemOID="QS.QSDTC" Mandatory="No" OrderNumber="16" Role="TIMING" RoleCodeListOID="RoleCodeList"/>
                <ItemRef ItemOID="QS.QSDY" Mandatory="No" OrderNumber="17" Role="TIMING" RoleCodeListOID="RoleCodeList"/>
                <ItemRef ItemOID="QS.QSEVLINT" Mandatory="No" OrderNumber="18" Role="TIMING" RoleCodeListOID="RoleCodeList"/>
                <def:leaf ID="Location.QSCS" xlink:href="qscs.xpt">
                    <def:title>qscs.xpt</def:title>
                </def:leaf>
            </ItemGroupDef>
            <ItemGroupDef OID="QSMM" Name="QS" Repeating="Yes" IsReferenceData="No" SASDatasetName="QSMM" Purpose="Tabulation" def:Label="Questionnaire-QSMM" def:Class="Findings" def:Structure="One record per questionnaire per question per visit per subject" def:DomainKeys="STUDYID, USUBJID, QSCAT, QSTESTCD, QSDTC, VISITNUM" def:ArchiveLocationID="Location.QSMM">
                <ItemRef ItemOID="STUDYID" Mandatory="Yes" OrderNumber="1" Role="IDENTIFIER" RoleCodeListOID="RoleCodeList"/>
                <ItemRef ItemOID="DOMAIN" Mandatory="Yes" OrderNumber="2" Role="IDENTIFIER" RoleCodeListOID="RoleCodeList"/>
                <ItemRef ItemOID="USUBJID" Mandatory="Yes" OrderNumber="3" Role="IDENTIFIER" RoleCodeListOID="RoleCodeList"/>
                <ItemRef ItemOID="QS.QSSEQ" Mandatory="Yes" OrderNumber="4" Role="IDENTIFIER" RoleCodeListOID="RoleCodeList"/>
                <ItemRef ItemOID="QS.QSTESTCD" Mandatory="Yes" OrderNumber="5" Role="TOPIC" RoleCodeListOID="RoleCodeList"/>
                <ItemRef ItemOID="QS.QSTEST" Mandatory="Yes" OrderNumber="6" Role="SYNONYM QUALIFIER" RoleCodeListOID="RoleCodeList"/>
                <ItemRef ItemOID="QS.QSCAT" Mandatory="Yes" OrderNumber="7" Role="GROUPING QUALIFIER" RoleCodeListOID="RoleCodeList"/>
                <ItemRef ItemOID="QS.QSORRES" Mandatory="No" OrderNumber="9" Role="RESULT QUALIFIER" RoleCodeListOID="RoleCodeList"/>
                <ItemRef ItemOID="QS.QSSTRESC" Mandatory="No" OrderNumber="10" Role="RESULT QUALIFIER" RoleCodeListOID="RoleCodeList"/>
                <ItemRef ItemOID="QS.QSSTRESN" Mandatory="No" OrderNumber="11" Role="RESULT QUALIFIER" RoleCodeListOID="RoleCodeList"/>
                <ItemRef ItemOID="QS.QSBLFL" Mandatory="No" OrderNumber="12" Role="RECORD QUALIFIER" RoleCodeListOID="RoleCodeList"/>
                <ItemRef ItemOID="QS.VISITNUM" Mandatory="No" OrderNumber="13" Role="TIMING" RoleCodeListOID="RoleCodeList"/>
                <ItemRef ItemOID="QS.VISIT" Mandatory="No" OrderNumber="14" Role="TIMING" RoleCodeListOID="RoleCodeList"/>
                <ItemRef ItemOID="QS.VISITDY" Mandatory="No" OrderNumber="15" Role="TIMING" RoleCodeListOID="RoleCodeList"/>
                <ItemRef ItemOID="QS.QSDTC" Mandatory="No" OrderNumber="16" Role="TIMING" RoleCodeListOID="RoleCodeList"/>
                <ItemRef ItemOID="QS.QSDY" Mandatory="No" OrderNumber="17" Role="TIMING" RoleCodeListOID="RoleCodeList"/>
                <def:leaf ID="Location.QSMM" xlink:href="qsmm.xpt">
                    <def:title>qsmm.xpt</def:title>
                </def:leaf>
            </ItemGroupDef>
            <ItemGroupDef OID="SC" Name="SC" Repeating="No" IsReferenceData="No" SASDatasetName="SC" Purpose="Tabulation" def:Label="Subject Characteristics" def:Class="Findings" def:Structure="One record per characteristic per subject" def:DomainKeys="STUDYID, USUBJID, SCTESTCD" def:ArchiveLocationID="Location.SC">
                <ItemRef ItemOID="STUDYID" Mandatory="Yes" OrderNumber="1" Role="IDENTIFIER" RoleCodeListOID="RoleCodeList"/>
                <ItemRef ItemOID="DOMAIN" Mandatory="Yes" OrderNumber="2" Role="IDENTIFIER" RoleCodeListOID="RoleCodeList"/>
                <ItemRef ItemOID="USUBJID" Mandatory="Yes" OrderNumber="3" Role="IDENTIFIER" RoleCodeListOID="RoleCodeList"/>
                <ItemRef ItemOID="SC.SCSEQ" Mandatory="Yes" OrderNumber="4" Role="IDENTIFIER" RoleCodeListOID="RoleCodeList"/>
                <ItemRef ItemOID="SC.SCTESTCD" Mandatory="Yes" OrderNumber="5" Role="TOPIC" RoleCodeListOID="RoleCodeList"/>
                <ItemRef ItemOID="SC.SCTEST" Mandatory="Yes" OrderNumber="6" Role="SYNONYM QUALIFIER" RoleCodeListOID="RoleCodeList"/>
                <ItemRef ItemOID="SC.SCORRES" Mandatory="No" OrderNumber="7" Role="RESULT QUALIFIER" RoleCodeListOID="RoleCodeList"/>
                <ItemRef ItemOID="SC.SCSTRESC" Mandatory="No" OrderNumber="8" Role="RESULT QUALIFIER" RoleCodeListOID="RoleCodeList"/>
                <ItemRef ItemOID="SC.SCDTC" Mandatory="No" OrderNumber="9" Role="TIMING" RoleCodeListOID="RoleCodeList"/>
                <ItemRef ItemOID="SC.SCDY" Mandatory="No" OrderNumber="10" Role="TIMING" RoleCodeListOID="RoleCodeList"/>
                <def:leaf ID="Location.SC" xlink:href="sc.xpt">
                    <def:title>sc.xpt</def:title>
                </def:leaf>
            </ItemGroupDef>
            <ItemGroupDef OID="VS" Name="VS" Repeating="Yes" IsReferenceData="No" SASDatasetName="VS" Purpose="Tabulation" def:Label="Vital Signs" def:Class="Findings" def:Structure="One record per vital sign measurement per visit per subject" def:DomainKeys="STUDYID, USUBJID, VSTESTCD, VSDTC, VISITNUM, VSPOS" def:ArchiveLocationID="Location.VS">
                <ItemRef ItemOID="STUDYID" Mandatory="Yes" OrderNumber="1" Role="IDENTIFIER" RoleCodeListOID="RoleCodeList"/>
                <ItemRef ItemOID="DOMAIN" Mandatory="Yes" OrderNumber="2" Role="IDENTIFIER" RoleCodeListOID="RoleCodeList"/>
                <ItemRef ItemOID="USUBJID" Mandatory="Yes" OrderNumber="3" Role="IDENTIFIER" RoleCodeListOID="RoleCodeList"/>
                <ItemRef ItemOID="VS.VSSEQ" Mandatory="Yes" OrderNumber="4" Role="IDENTIFIER" RoleCodeListOID="RoleCodeList"/>
                <ItemRef ItemOID="VS.VSTESTCD" Mandatory="Yes" OrderNumber="5" Role="TOPIC" RoleCodeListOID="RoleCodeList"/>
                <ItemRef ItemOID="VS.VSTEST" Mandatory="Yes" OrderNumber="6" Role="SYNONYM QUALIFIER" RoleCodeListOID="RoleCodeList"/>
                <ItemRef ItemOID="VS.VSPOS" Mandatory="No" OrderNumber="7" Role="RECORD QUALIFIER" RoleCodeListOID="RoleCodeList"/>
                <ItemRef ItemOID="VS.VSORRES" Mandatory="No" OrderNumber="8" Role="RESULT QUALIFIER" RoleCodeListOID="RoleCodeList"/>
                <ItemRef ItemOID="VS.VSORRESU" Mandatory="No" OrderNumber="9" Role="VARIABLE QUALIFIER" RoleCodeListOID="RoleCodeList"/>
                <ItemRef ItemOID="VS.VSSTRESC" Mandatory="No" OrderNumber="10" Role="RESULT QUALIFIER" RoleCodeListOID="RoleCodeList"/>
                <ItemRef ItemOID="VS.VSSTRESN" Mandatory="No" OrderNumber="11" Role="RESULT QUALIFIER" RoleCodeListOID="RoleCodeList"/>
                <ItemRef ItemOID="VS.VSSTRESU" Mandatory="No" OrderNumber="12" Role="VARIABLE QUALIFIER" RoleCodeListOID="RoleCodeList"/>
                <ItemRef ItemOID="VS.VSBLFL" Mandatory="No" OrderNumber="13" Role="RECORD QUALIFIER" RoleCodeListOID="RoleCodeList"/>
                <ItemRef ItemOID="VS.VISITNUM" Mandatory="No" OrderNumber="14" Role="TIMING" RoleCodeListOID="RoleCodeList"/>
                <ItemRef ItemOID="VS.VISIT" Mandatory="No" OrderNumber="15" Role="TIMING" RoleCodeListOID="RoleCodeList"/>
                <ItemRef ItemOID="VS.VISITDY" Mandatory="No" OrderNumber="16" Role="TIMING" RoleCodeListOID="RoleCodeList"/>
                <ItemRef ItemOID="VS.VSDTC" Mandatory="No" OrderNumber="17" Role="TIMING" RoleCodeListOID="RoleCodeList"/>
                <ItemRef ItemOID="VS.VSDY" Mandatory="No" OrderNumber="18" Role="TIMING" RoleCodeListOID="RoleCodeList"/>
                <def:leaf ID="Location.VS" xlink:href="vs.xpt">
                    <def:title>vs.xpt</def:title>
                </def:leaf>
            </ItemGroupDef>
            <ItemGroupDef OID="SUPPAE" Name="SUPPAE" Repeating="Yes" IsReferenceData="No" SASDatasetName="SUPPAE" Purpose="Tabulation" def:Label="Supplemental Qualifier" def:Class="Relationship" def:Structure="One record per IDVAR, IDVARVAL, and QNAM value per subject" def:DomainKeys="STUDYID, RDOMAIN, USUBJID, IDVAR, IDVARVAL, QNAM" def:ArchiveLocationID="Location.SUPPAE">
                <ItemRef ItemOID="STUDYID" Mandatory="Yes" OrderNumber="1" Role="IDENTIFIER" RoleCodeListOID="RoleCodeList"/>
                <ItemRef ItemOID="RDOMAIN" Mandatory="Yes" OrderNumber="2" Role="IDENTIFIER" RoleCodeListOID="RoleCodeList"/>
                <ItemRef ItemOID="USUBJID" Mandatory="Yes" OrderNumber="3" Role="IDENTIFIER" RoleCodeListOID="RoleCodeList"/>
                <ItemRef ItemOID="SUPPAE.IDVAR" Mandatory="No" OrderNumber="4" Role="IDENTIFIER" RoleCodeListOID="RoleCodeList"/>
                <ItemRef ItemOID="SUPPAE.IDVARVAL" Mandatory="No" OrderNumber="5" Role="IDENTIFIER" RoleCodeListOID="RoleCodeList"/>
                <ItemRef ItemOID="SUPPAE.QNAM" Mandatory="Yes" OrderNumber="6" Role="TOPIC" RoleCodeListOID="RoleCodeList"/>
                <ItemRef ItemOID="SUPPAE.QLABEL" Mandatory="Yes" OrderNumber="7" Role="SYNONYM QUALIFIER" RoleCodeListOID="RoleCodeList"/>
                <ItemRef ItemOID="SUPPAE.QVAL" Mandatory="Yes" OrderNumber="8" Role="RESULT" RoleCodeListOID="RoleCodeList"/>
                <ItemRef ItemOID="SUPPAE.QORIG" Mandatory="Yes" OrderNumber="9" Role="RESULT QUALIFIER" RoleCodeListOID="RoleCodeList"/>
                <ItemRef ItemOID="SUPPAE.QEVAL" Mandatory="No" OrderNumber="10" Role="RESULT QUALIFIER" RoleCodeListOID="RoleCodeList"/>
                <def:leaf ID="Location.SUPPAE" xlink:href="suppae.xpt">
                    <def:title>suppae.xpt</def:title>
                </def:leaf>
            </ItemGroupDef>
            <ItemGroupDef OID="SUPPCM" Name="SUPPCM" Repeating="Yes" IsReferenceData="No" SASDatasetName="SUPPCM" Purpose="Tabulation" def:Label="Supplemental Qualifier" def:Class="Relationship" def:Structure="One record per IDVAR, IDVARVAL, and QNAM value per subject" def:DomainKeys="STUDYID, RDOMAIN, USUBJID, IDVAR, IDVARVAL, QNAM" def:ArchiveLocationID="Location.SUPPCM">
                <ItemRef ItemOID="STUDYID" Mandatory="Yes" OrderNumber="1" Role="IDENTIFIER" RoleCodeListOID="RoleCodeList"/>
                <ItemRef ItemOID="RDOMAIN" Mandatory="Yes" OrderNumber="2" Role="IDENTIFIER" RoleCodeListOID="RoleCodeList"/>
                <ItemRef ItemOID="USUBJID" Mandatory="Yes" OrderNumber="3" Role="IDENTIFIER" RoleCodeListOID="RoleCodeList"/>
                <ItemRef ItemOID="SUPPCM.IDVAR" Mandatory="No" OrderNumber="4" Role="IDENTIFIER" RoleCodeListOID="RoleCodeList"/>
                <ItemRef ItemOID="SUPPCM.IDVARVAL" Mandatory="No" OrderNumber="5" Role="IDENTIFIER" RoleCodeListOID="RoleCodeList"/>
                <ItemRef ItemOID="SUPPCM.QNAM" Mandatory="Yes" OrderNumber="6" Role="TOPIC" RoleCodeListOID="RoleCodeList"/>
                <ItemRef ItemOID="SUPPCM.QLABEL" Mandatory="Yes" OrderNumber="7" Role="SYNONYM QUALIFIER" RoleCodeListOID="RoleCodeList"/>
                <ItemRef ItemOID="SUPPCM.QVAL" Mandatory="Yes" OrderNumber="8" Role="RESULT" RoleCodeListOID="RoleCodeList"/>
                <ItemRef ItemOID="SUPPCM.QORIG" Mandatory="Yes" OrderNumber="9" Role="RESULT QUALIFIER" RoleCodeListOID="RoleCodeList"/>
                <ItemRef ItemOID="SUPPCM.QEVAL" Mandatory="No" OrderNumber="10" Role="RESULT QUALIFIER" RoleCodeListOID="RoleCodeList"/>
                <def:leaf ID="Location.SUPPCM" xlink:href="suppcm.xpt">
                    <def:title>suppcm.xpt</def:title>
                </def:leaf>
            </ItemGroupDef>
            <ItemGroupDef OID="SUPPDM" Name="SUPPDM" Repeating="Yes" IsReferenceData="No" SASDatasetName="SUPPDM" Purpose="Tabulation" def:Label="Supplemental Qualifier" def:Class="Relationship" def:Structure="One record per IDVAR, IDVARVAL, and QNAM value per subject" def:DomainKeys="STUDYID, RDOMAIN, USUBJID, IDVAR, IDVARVAL, QNAM" def:ArchiveLocationID="Location.SUPPDM">
                <ItemRef ItemOID="STUDYID" Mandatory="Yes" OrderNumber="1" Role="IDENTIFIER" RoleCodeListOID="RoleCodeList"/>
                <ItemRef ItemOID="RDOMAIN" Mandatory="Yes" OrderNumber="2" Role="IDENTIFIER" RoleCodeListOID="RoleCodeList"/>
                <ItemRef ItemOID="USUBJID" Mandatory="Yes" OrderNumber="3" Role="IDENTIFIER" RoleCodeListOID="RoleCodeList"/>
                <ItemRef ItemOID="SUPPDM.IDVAR" Mandatory="No" OrderNumber="4" Role="IDENTIFIER" RoleCodeListOID="RoleCodeList"/>
                <ItemRef ItemOID="SUPPDM.IDVARVAL" Mandatory="No" OrderNumber="5" Role="IDENTIFIER" RoleCodeListOID="RoleCodeList"/>
                <ItemRef ItemOID="SUPPDM.QNAM" Mandatory="Yes" OrderNumber="6" Role="TOPIC" RoleCodeListOID="RoleCodeList"/>
                <ItemRef ItemOID="SUPPDM.QLABEL" Mandatory="Yes" OrderNumber="7" Role="SYNONYM QUALIFIER" RoleCodeListOID="RoleCodeList"/>
                <ItemRef ItemOID="SUPPDM.QVAL" Mandatory="Yes" OrderNumber="8" Role="RESULT" RoleCodeListOID="RoleCodeList"/>
                <ItemRef ItemOID="SUPPDM.QORIG" Mandatory="Yes" OrderNumber="9" Role="RESULT QUALIFIER" RoleCodeListOID="RoleCodeList"/>
                <ItemRef ItemOID="SUPPDM.QEVAL" Mandatory="No" OrderNumber="10" Role="RESULT QUALIFIER" RoleCodeListOID="RoleCodeList"/>
                <def:leaf ID="Location.SUPPDM" xlink:href="suppdm.xpt">
                    <def:title>suppdm.xpt</def:title>
                </def:leaf>
            </ItemGroupDef>
            <ItemGroupDef OID="SUPPEG" Name="SUPPEG" Repeating="Yes" IsReferenceData="No" SASDatasetName="SUPPEG" Purpose="Tabulation" def:Label="Supplemental Qualifier" def:Class="Relationship" def:Structure="One record per IDVAR, IDVARVAL, and QNAM value per subject" def:DomainKeys="STUDYID, RDOMAIN, USUBJID, IDVAR, IDVARVAL, QNAM" def:ArchiveLocationID="Location.SUPPEG">
                <ItemRef ItemOID="STUDYID" Mandatory="Yes" OrderNumber="1" Role="IDENTIFIER" RoleCodeListOID="RoleCodeList"/>
                <ItemRef ItemOID="RDOMAIN" Mandatory="Yes" OrderNumber="2" Role="IDENTIFIER" RoleCodeListOID="RoleCodeList"/>
                <ItemRef ItemOID="USUBJID" Mandatory="Yes" OrderNumber="3" Role="IDENTIFIER" RoleCodeListOID="RoleCodeList"/>
                <ItemRef ItemOID="SUPPEG.IDVAR" Mandatory="No" OrderNumber="4" Role="IDENTIFIER" RoleCodeListOID="RoleCodeList"/>
                <ItemRef ItemOID="SUPPEG.IDVARVAL" Mandatory="No" OrderNumber="5" Role="IDENTIFIER" RoleCodeListOID="RoleCodeList"/>
                <ItemRef ItemOID="SUPPEG.QNAM" Mandatory="Yes" OrderNumber="6" Role="TOPIC" RoleCodeListOID="RoleCodeList"/>
                <ItemRef ItemOID="SUPPEG.QLABEL" Mandatory="Yes" OrderNumber="7" Role="SYNONYM QUALIFIER" RoleCodeListOID="RoleCodeList"/>
                <ItemRef ItemOID="SUPPEG.QVAL" Mandatory="Yes" OrderNumber="8" Role="RESULT" RoleCodeListOID="RoleCodeList"/>
                <ItemRef ItemOID="SUPPEG.QORIG" Mandatory="Yes" OrderNumber="9" Role="RESULT QUALIFIER" RoleCodeListOID="RoleCodeList"/>
                <ItemRef ItemOID="SUPPEG.QEVAL" Mandatory="No" OrderNumber="10" Role="RESULT QUALIFIER" RoleCodeListOID="RoleCodeList"/>
                <def:leaf ID="Location.SUPPEG" xlink:href="suppeg.xpt">
                    <def:title>suppeg.xpt</def:title>
                </def:leaf>
            </ItemGroupDef>
            <ItemGroupDef OID="SUPPEX" Name="SUPPEX" Repeating="Yes" IsReferenceData="No" SASDatasetName="SUPPEX" Purpose="Tabulation" def:Label="Supplemental Qualifier" def:Class="Relationship" def:Structure="One record per IDVAR, IDVARVAL, and QNAM value per subject" def:DomainKeys="STUDYID, RDOMAIN, USUBJID, IDVAR, IDVARVAL, QNAM" def:ArchiveLocationID="Location.SUPPEX">
                <ItemRef ItemOID="STUDYID" Mandatory="Yes" OrderNumber="1" Role="IDENTIFIER" RoleCodeListOID="RoleCodeList"/>
                <ItemRef ItemOID="RDOMAIN" Mandatory="Yes" OrderNumber="2" Role="IDENTIFIER" RoleCodeListOID="RoleCodeList"/>
                <ItemRef ItemOID="USUBJID" Mandatory="Yes" OrderNumber="3" Role="IDENTIFIER" RoleCodeListOID="RoleCodeList"/>
                <ItemRef ItemOID="SUPPEX.IDVAR" Mandatory="No" OrderNumber="4" Role="IDENTIFIER" RoleCodeListOID="RoleCodeList"/>
                <ItemRef ItemOID="SUPPEX.IDVARVAL" Mandatory="No" OrderNumber="5" Role="IDENTIFIER" RoleCodeListOID="RoleCodeList"/>
                <ItemRef ItemOID="SUPPEX.QNAM" Mandatory="Yes" OrderNumber="6" Role="TOPIC" RoleCodeListOID="RoleCodeList"/>
                <ItemRef ItemOID="SUPPEX.QLABEL" Mandatory="Yes" OrderNumber="7" Role="SYNONYM QUALIFIER" RoleCodeListOID="RoleCodeList"/>
                <ItemRef ItemOID="SUPPEX.QVAL" Mandatory="Yes" OrderNumber="8" Role="RESULT" RoleCodeListOID="RoleCodeList"/>
                <ItemRef ItemOID="SUPPEX.QORIG" Mandatory="Yes" OrderNumber="9" Role="RESULT QUALIFIER" RoleCodeListOID="RoleCodeList"/>
                <ItemRef ItemOID="SUPPEX.QEVAL" Mandatory="No" OrderNumber="10" Role="RESULT QUALIFIER" RoleCodeListOID="RoleCodeList"/>
                <def:leaf ID="Location.SUPPEX" xlink:href="suppex.xpt">
                    <def:title>suppex.xpt</def:title>
                </def:leaf>
            </ItemGroupDef>
            <ItemGroupDef OID="SUPPLB" Name="SUPPLB" Repeating="Yes" IsReferenceData="No" SASDatasetName="SUPPLB" Purpose="Tabulation" def:Label="Supplemental Qualifier" def:Class="Relationship" def:Structure="One record per IDVAR, IDVARVAL, and QNAM value per subject" def:DomainKeys="STUDYID, RDOMAIN, USUBJID, IDVAR, IDVARVAL, QNAM" def:ArchiveLocationID="Location.SUPPLB">
                <ItemRef ItemOID="STUDYID" Mandatory="Yes" OrderNumber="1" Role="IDENTIFIER" RoleCodeListOID="RoleCodeList"/>
                <ItemRef ItemOID="RDOMAIN" Mandatory="Yes" OrderNumber="2" Role="IDENTIFIER" RoleCodeListOID="RoleCodeList"/>
                <ItemRef ItemOID="USUBJID" Mandatory="Yes" OrderNumber="3" Role="IDENTIFIER" RoleCodeListOID="RoleCodeList"/>
                <ItemRef ItemOID="SUPPLB.IDVAR" Mandatory="No" OrderNumber="4" Role="IDENTIFIER" RoleCodeListOID="RoleCodeList"/>
                <ItemRef ItemOID="SUPPLB.IDVARVAL" Mandatory="No" OrderNumber="5" Role="IDENTIFIER" RoleCodeListOID="RoleCodeList"/>
                <ItemRef ItemOID="SUPPLB.QNAM" Mandatory="Yes" OrderNumber="6" Role="TOPIC" RoleCodeListOID="RoleCodeList"/>
                <ItemRef ItemOID="SUPPLB.QLABEL" Mandatory="Yes" OrderNumber="7" Role="SYNONYM QUALIFIER" RoleCodeListOID="RoleCodeList"/>
                <ItemRef ItemOID="SUPPLB.QVAL" Mandatory="Yes" OrderNumber="8" Role="RESULT" RoleCodeListOID="RoleCodeList"/>
                <ItemRef ItemOID="SUPPLB.QORIG" Mandatory="Yes" OrderNumber="9" Role="RESULT QUALIFIER" RoleCodeListOID="RoleCodeList"/>
                <ItemRef ItemOID="SUPPLB.QEVAL" Mandatory="No" OrderNumber="10" Role="RESULT QUALIFIER" RoleCodeListOID="RoleCodeList"/>
                <def:leaf ID="Location.SUPPLB" xlink:href="supplb.xpt">
                    <def:title>supplb.xpt</def:title>
                </def:leaf>
            </ItemGroupDef>
            <ItemGroupDef OID="SUPPQSCG" Name="SUPPQS" Repeating="Yes" IsReferenceData="No" SASDatasetName="SUPPQSCG" Purpose="Tabulation" def:Label="Supplemental Qualifier" def:Class="Relationship" def:Structure="One record per IDVAR, IDVARVAL, and QNAM value per subject" def:DomainKeys="STUDYID, RDOMAIN, USUBJID, IDVAR, IDVARVAL, QNAM" def:ArchiveLocationID="Location.SUPPQSCG">
                <ItemRef ItemOID="STUDYID" Mandatory="Yes" OrderNumber="1" Role="IDENTIFIER" RoleCodeListOID="RoleCodeList"/>
                <ItemRef ItemOID="RDOMAIN" Mandatory="Yes" OrderNumber="2" Role="IDENTIFIER" RoleCodeListOID="RoleCodeList"/>
                <ItemRef ItemOID="USUBJID" Mandatory="Yes" OrderNumber="3" Role="IDENTIFIER" RoleCodeListOID="RoleCodeList"/>
                <ItemRef ItemOID="SUPPQS.IDVAR" Mandatory="No" OrderNumber="4" Role="IDENTIFIER" RoleCodeListOID="RoleCodeList"/>
                <ItemRef ItemOID="SUPPQS.IDVARVAL" Mandatory="No" OrderNumber="5" Role="IDENTIFIER" RoleCodeListOID="RoleCodeList"/>
                <ItemRef ItemOID="SUPPQS.QNAM" Mandatory="Yes" OrderNumber="6" Role="TOPIC" RoleCodeListOID="RoleCodeList"/>
                <ItemRef ItemOID="SUPPQS.QLABEL" Mandatory="Yes" OrderNumber="7" Role="SYNONYM QUALIFIER" RoleCodeListOID="RoleCodeList"/>
                <ItemRef ItemOID="SUPPQS.QVAL" Mandatory="Yes" OrderNumber="8" Role="RESULT" RoleCodeListOID="RoleCodeList"/>
                <ItemRef ItemOID="SUPPQS.QORIG" Mandatory="Yes" OrderNumber="9" Role="RESULT QUALIFIER" RoleCodeListOID="RoleCodeList"/>
                <ItemRef ItemOID="SUPPQS.QEVAL" Mandatory="No" OrderNumber="10" Role="RESULT QUALIFIER" RoleCodeListOID="RoleCodeList"/>
                <def:leaf ID="Location.SUPPQSCG" xlink:href="suppqscg.xpt">
                    <def:title>suppqscg.xpt</def:title>
                </def:leaf>
            </ItemGroupDef>
            <ItemGroupDef OID="SUPPQSCS" Name="SUPPQS" Repeating="Yes" IsReferenceData="No" SASDatasetName="SUPPQSCS" Purpose="Tabulation" def:Label="Supplemental Qualifier" def:Class="Relationship" def:Structure="One record per IDVAR, IDVARVAL, and QNAM value per subject" def:DomainKeys="STUDYID, RDOMAIN, USUBJID, IDVAR, IDVARVAL, QNAM" def:ArchiveLocationID="Location.SUPPQSCS">
                <ItemRef ItemOID="STUDYID" Mandatory="Yes" OrderNumber="1" Role="IDENTIFIER" RoleCodeListOID="RoleCodeList"/>
                <ItemRef ItemOID="RDOMAIN" Mandatory="Yes" OrderNumber="2" Role="IDENTIFIER" RoleCodeListOID="RoleCodeList"/>
                <ItemRef ItemOID="USUBJID" Mandatory="Yes" OrderNumber="3" Role="IDENTIFIER" RoleCodeListOID="RoleCodeList"/>
                <ItemRef ItemOID="SUPPQS.IDVAR" Mandatory="No" OrderNumber="4" Role="IDENTIFIER" RoleCodeListOID="RoleCodeList"/>
                <ItemRef ItemOID="SUPPQS.IDVARVAL" Mandatory="No" OrderNumber="5" Role="IDENTIFIER" RoleCodeListOID="RoleCodeList"/>
                <ItemRef ItemOID="SUPPQS.QNAM" Mandatory="Yes" OrderNumber="6" Role="TOPIC" RoleCodeListOID="RoleCodeList"/>
                <ItemRef ItemOID="SUPPQS.QLABEL" Mandatory="Yes" OrderNumber="7" Role="SYNONYM QUALIFIER" RoleCodeListOID="RoleCodeList"/>
                <ItemRef ItemOID="SUPPQS.QVAL" Mandatory="Yes" OrderNumber="8" Role="RESULT" RoleCodeListOID="RoleCodeList"/>
                <ItemRef ItemOID="SUPPQS.QORIG" Mandatory="Yes" OrderNumber="9" Role="RESULT QUALIFIER" RoleCodeListOID="RoleCodeList"/>
                <ItemRef ItemOID="SUPPQS.QEVAL" Mandatory="No" OrderNumber="10" Role="RESULT QUALIFIER" RoleCodeListOID="RoleCodeList"/>
                <def:leaf ID="Location.SUPPQSCS" xlink:href="suppqscs.xpt">
                    <def:title>suppqscs.xpt</def:title>
                </def:leaf>
            </ItemGroupDef>
            <ItemGroupDef OID="SUPPQSMM" Name="SUPPQS" Repeating="Yes" IsReferenceData="No" SASDatasetName="SUPPQSMM" Purpose="Tabulation" def:Label="Supplemental Qualifier" def:Class="Relationship" def:Structure="One record per IDVAR, IDVARVAL, and QNAM value per subject" def:DomainKeys="STUDYID, RDOMAIN, USUBJID, IDVAR, IDVARVAL, QNAM" def:ArchiveLocationID="Location.SUPPQSMM">
                <ItemRef ItemOID="STUDYID" Mandatory="Yes" OrderNumber="1" Role="IDENTIFIER" RoleCodeListOID="RoleCodeList"/>
                <ItemRef ItemOID="RDOMAIN" Mandatory="Yes" OrderNumber="2" Role="IDENTIFIER" RoleCodeListOID="RoleCodeList"/>
                <ItemRef ItemOID="USUBJID" Mandatory="Yes" OrderNumber="3" Role="IDENTIFIER" RoleCodeListOID="RoleCodeList"/>
                <ItemRef ItemOID="SUPPQS.IDVAR" Mandatory="No" OrderNumber="4" Role="IDENTIFIER" RoleCodeListOID="RoleCodeList"/>
                <ItemRef ItemOID="SUPPQS.IDVARVAL" Mandatory="No" OrderNumber="5" Role="IDENTIFIER" RoleCodeListOID="RoleCodeList"/>
                <ItemRef ItemOID="SUPPQS.QNAM" Mandatory="Yes" OrderNumber="6" Role="TOPIC" RoleCodeListOID="RoleCodeList"/>
                <ItemRef ItemOID="SUPPQS.QLABEL" Mandatory="Yes" OrderNumber="7" Role="SYNONYM QUALIFIER" RoleCodeListOID="RoleCodeList"/>
                <ItemRef ItemOID="SUPPQS.QVAL" Mandatory="Yes" OrderNumber="8" Role="RESULT" RoleCodeListOID="RoleCodeList"/>
                <ItemRef ItemOID="SUPPQS.QORIG" Mandatory="Yes" OrderNumber="9" Role="RESULT QUALIFIER" RoleCodeListOID="RoleCodeList"/>
                <ItemRef ItemOID="SUPPQS.QEVAL" Mandatory="No" OrderNumber="10" Role="RESULT QUALIFIER" RoleCodeListOID="RoleCodeList"/>
                <def:leaf ID="Location.SUPPQSMM" xlink:href="suppqsmm.xpt">
                    <def:title>suppqsmm.xpt</def:title>
                </def:leaf>
            </ItemGroupDef>
            <ItemGroupDef OID="SUPPVS" Name="SUPPVS" Repeating="Yes" IsReferenceData="No" SASDatasetName="SUPPVS" Purpose="Tabulation" def:Label="Supplemental Qualifier" def:Class="Relationship" def:Structure="One record per IDVAR, IDVARVAL, and QNAM value per subject" def:DomainKeys="STUDYID, RDOMAIN, USUBJID, IDVAR, IDVARVAL, QNAM" def:ArchiveLocationID="Location.SUPPVS">
                <ItemRef ItemOID="STUDYID" Mandatory="Yes" OrderNumber="1" Role="IDENTIFIER" RoleCodeListOID="RoleCodeList"/>
                <ItemRef ItemOID="RDOMAIN" Mandatory="Yes" OrderNumber="2" Role="IDENTIFIER" RoleCodeListOID="RoleCodeList"/>
                <ItemRef ItemOID="USUBJID" Mandatory="Yes" OrderNumber="3" Role="IDENTIFIER" RoleCodeListOID="RoleCodeList"/>
                <ItemRef ItemOID="SUPPVS.IDVAR" Mandatory="No" OrderNumber="4" Role="IDENTIFIER" RoleCodeListOID="RoleCodeList"/>
                <ItemRef ItemOID="SUPPVS.IDVARVAL" Mandatory="No" OrderNumber="5" Role="IDENTIFIER" RoleCodeListOID="RoleCodeList"/>
                <ItemRef ItemOID="SUPPVS.QNAM" Mandatory="Yes" OrderNumber="6" Role="TOPIC" RoleCodeListOID="RoleCodeList"/>
                <ItemRef ItemOID="SUPPVS.QLABEL" Mandatory="Yes" OrderNumber="7" Role="SYNONYM QUALIFIER" RoleCodeListOID="RoleCodeList"/>
                <ItemRef ItemOID="SUPPVS.QVAL" Mandatory="Yes" OrderNumber="8" Role="RESULT" RoleCodeListOID="RoleCodeList"/>
                <ItemRef ItemOID="SUPPVS.QORIG" Mandatory="Yes" OrderNumber="9" Role="RESULT QUALIFIER" RoleCodeListOID="RoleCodeList"/>
                <ItemRef ItemOID="SUPPVS.QEVAL" Mandatory="No" OrderNumber="10" Role="RESULT QUALIFIER" RoleCodeListOID="RoleCodeList"/>
                <def:leaf ID="Location.SUPPVS" xlink:href="suppvs.xpt">
                    <def:title>suppvs.xpt</def:title>
                </def:leaf>
            </ItemGroupDef>
            <ItemDef OID="SUPPAE.QNAM.AETRTEM" Name="AETRTEM" DataType="text" Length="1" Origin="Derived" Comment="If it was not present prior to the RFSTDTC, or it was present prior to the RFSTDTC but increased in severity during the treatment period then equal Y.." def:Label="Treatment Emergent Flag">
                <CodeListRef CodeListOID="NY"/>
            </ItemDef>
            <ItemDef OID="SUPPCM.QNAM.ATC4CODE" Name="ATC4CODE" DataType="text" Length="5" Origin="Assigned" def:Label="WHODRUG ATC Level 4 Code">
                <CodeListRef CodeListOID="DRUGDICT_F"/>
            </ItemDef>
            <ItemDef OID="SUPPCM.QNAM.ATC4TERM" Name="ATC4TERM" DataType="text" Length="43" Origin="Assigned" def:Label="ATC4 Drug Class Term">
                <CodeListRef CodeListOID="DRUGDICT_F"/>
            </ItemDef>
            <ItemDef OID="SUPPCM.QNAM.CPREFCD" Name="CPREFCD" DataType="text" Length="11" Origin="Assigned" def:Label="WHODRUG Drug Code">
                <CodeListRef CodeListOID="DRUGDICT_F"/>
            </ItemDef>
            <ItemDef OID="SUPPEG.QNAM.EGCLSIG" Name="EGCLSIG" DataType="text" Length="1" Origin="CRF Page 12" def:Label="Clinically Significant">
                <CodeListRef CodeListOID="NY"/>
            </ItemDef>
            <ItemDef OID="SUPPAE.QNAM.HLGT" Name="HLGT" DataType="text" Length="52" Origin="Assigned" def:Label="High Level Group Term">
                <CodeListRef CodeListOID="AEDICT_F"/>
            </ItemDef>
            <ItemDef OID="SUPPAE.QNAM.HLT" Name="HLT" DataType="text" Length="60" Origin="Assigned" def:Label="High Level Term">
                <CodeListRef CodeListOID="AEDICT_F"/>
            </ItemDef>
            <ItemDef OID="SUPPLB.QNAM.LBCLSIG" Name="LBCLSIG" DataType="text" Length="1" Origin="Derived" Comment="Only created if value qualifies as potentially clinically significant high or low based on the high and low ranges specified in the Statitical Analysis Plan.." def:Label="Clinically Significant">
                <CodeListRef CodeListOID="NY"/>
            </ItemDef>
            <ItemDef OID="SUPPAE.QNAM.LLT" Name="LLT" DataType="text" Length="18" Origin="Assigned" def:Label="Lowest Level Term">
                <CodeListRef CodeListOID="AEDICT_F"/>
            </ItemDef>
            <ItemDef OID="SUPPCM.QNAM.PDDREAS" Name="PDDREAS" DataType="text" Length="21" Origin="CRF Page 9" def:Label="Reason for Discontinuation">
                <CodeListRef CodeListOID="DDISCNTF"/>
            </ItemDef>
            <ItemDef OID="SUPPCM.QNAM.PDRESP" Name="PDRESP" DataType="text" Length="4" Origin="CRF Page 9" def:Label="Response">
                <CodeListRef CodeListOID="PSRESPF"/>
            </ItemDef>
            <ItemDef OID="SUPPDM.QNAM.RACE1" Name="RACE1" DataType="text" Length="5" Origin="CRF Page 6" def:Label="Race 1">
                <CodeListRef CodeListOID="RACE"/>
            </ItemDef>
            <ItemDef OID="SUPPDM.QNAM.RACE2" Name="RACE2" DataType="text" Length="25" Origin="CRF Page 6" def:Label="Race 2">
                <CodeListRef CodeListOID="RACE"/>
            </ItemDef>
            <ItemDef OID="SUPPDM.QNAM.RACE3" Name="RACE3" DataType="text" Length="5" Origin="CRF Page 6" def:Label="Race 3">
                <CodeListRef CodeListOID="RACE"/>
            </ItemDef>
            <ItemDef OID="SUPPDM.QNAM.RACEOTH" Name="RACEOTH" DataType="text" Length="14" Origin="CRF Page 6" def:Label="Race, Other"/>
            <ItemDef OID="SUPPDM.QNAM.RAND" Name="RAND" DataType="text" Length="1" Origin="CRF Page 16" Comment="Randomization Population flag will be set to Y for subjects who were randomized" def:Label="Randomized Population Flag">
                <CodeListRef CodeListOID="NY"/>
            </ItemDef>
            <ItemDef OID="SUPPDM.QNAM.RANDNO" Name="RANDNO" DataType="integer" Length="4" Origin="CRF Page 16" def:Label="Randomization Number"/>
            <ItemDef OID="SUPPQS.QNAM.RTRINIT" Name="RTRINIT" DataType="text" Length="3" Origin="QSMM-CRF Page 13, ;QSCS-CRF Page 14, 15, ;QSCG-CRF Page 17;" def:Label="Rater Initials"/>
            <ItemDef OID="SUPPDM.QNAM.SAFETY" Name="SAFETY" DataType="text" Length="1" Origin="Derived" Comment="Safety Population flag will be set to Y for randomized subjects who took at least one dose study medication" def:Label="Safety Population Flag">
                <CodeListRef CodeListOID="NY"/>
            </ItemDef>
            <ItemDef OID="SUPPEX.QNAM.SMNO" Name="SMNO" DataType="text" Length="2" Origin="CRF Page 20" def:Label="Number of Tablets Per Day"/>
            <ItemDef OID="SUPPVS.QNAM.VSCLSIG" Name="VSCLSIG" DataType="text" Length="1" Origin="Derived" Comment="Only created if value qualifies as potentially clinically significant high or low based on the high and low ranges specified in the Statitical Analysis Plan.." def:Label="Clinically Significant">
                <CodeListRef CodeListOID="NY"/>
            </ItemDef>
            <ItemDef OID="DOMAIN" Name="DOMAIN" DataType="text" Length="2" Origin="Assigned" def:Label="Domain Abbreviation"/>
            <ItemDef OID="USUBJID" Name="USUBJID" DataType="text" Length="14" Origin="Derived" Comment="Concatenation of STUDYID.SUBJID" def:Label="Unique Subject Identifier"/>
            <ItemDef OID="AE.AESEQ" Name="AESEQ" DataType="integer" Length="1" Origin="Derived" Comment="Sequential number identifying records within each USUBJID and generated using the key sequence of the domain." def:Label="Sequence Number"/>
            <ItemDef OID="AE.AETERM" Name="AETERM" DataType="text" Length="25" Origin="CRF Page 21" def:Label="Reported Term for the Adverse Event"/>
            <ItemDef OID="AE.AEMODIFY" Name="AEMODIFY" DataType="text" Length="9" Origin="Assigned" def:Label="Modified Reported Term"/>
            <ItemDef OID="AE.AEDECOD" Name="AEDECOD" DataType="text" Length="18" Origin="Assigned" def:Label="Dictionary-Derived Term">
                <CodeListRef CodeListOID="AEDICT_F"/>
            </ItemDef>
            <ItemDef OID="AE.AEBODSYS" Name="AEBODSYS" DataType="text" Length="52" Origin="Assigned" def:Label="Body System or Organ Class">
                <CodeListRef CodeListOID="AEDICT_F"/>
            </ItemDef>
            <ItemDef OID="AE.AESEV" Name="AESEV" DataType="text" Length="8" Origin="CRF Page 21" def:Label="Severity/Intensity">
                <CodeListRef CodeListOID="AESEV"/>
            </ItemDef>
            <ItemDef OID="AE.AESER" Name="AESER" DataType="text" Length="1" Origin="CRF Page 21" def:Label="Serious Event">
                <CodeListRef CodeListOID="NY"/>
            </ItemDef>
            <ItemDef OID="AE.AEACN" Name="AEACN" DataType="text" Length="30" Origin="CRF Page 21" def:Label="Action Taken with Study Treatment">
                <CodeListRef CodeListOID="ACN"/>
            </ItemDef>
            <ItemDef OID="AE.AEREL" Name="AEREL" DataType="text" Length="16" Origin="CRF Page 21" def:Label="Causality">
                <CodeListRef CodeListOID="AEREL"/>
            </ItemDef>
            <ItemDef OID="AE.AESTDTC" Name="AESTDTC" DataType="date" Length="10" Origin="CRF Page 21" def:Label="Start Date/Time of Adverse Event"/>
            <ItemDef OID="AE.AEENDTC" Name="AEENDTC" DataType="date" Length="10" Origin="CRF Page 21" def:Label="End Date/Time of Adverse Event"/>
            <ItemDef OID="AE.AESTDY" Name="AESTDY" DataType="integer" Length="3" Origin="Derived" Comment="Calculation: = AESTDTC - RFSTDTC+1 if AESTDTC is on or after RFSTDTC. AESTDTC - RFSTDTC if AESTDTC precedes RFSTDTC" def:Label="Study Day of Start of Adverse Event"/>
            <ItemDef OID="AE.AEENDY" Name="AEENDY" DataType="integer" Length="3" Origin="Derived" Comment="Calculation: = AEENDTC -RFSTDTC+1 if AEENDTC is on or after RFSTDTC. AEENDTC - RFSTDTC if AEENDTC precedes RFSTDTC" def:Label="Study Day of End of Adverse Event"/>
            <ItemDef OID="AE.AEENRF" Name="AEENRF" DataType="text" Length="5" Origin="CRF Page 21" def:Label="End Relative to Reference Period">
                <CodeListRef CodeListOID="AEENRF"/>
            </ItemDef>
            <ItemDef OID="CM.CMSEQ" Name="CMSEQ" DataType="integer" Length="2" Origin="Derived" Comment="Sequential number identifying records within each USUBJID and generated using the key sequence of the domain." def:Label="Sequence Number"/>
            <ItemDef OID="CM.CMTRT" Name="CMTRT" DataType="text" Length="23" Origin="CRF Pages 9, 22" def:Label="Reported Name of Drug, Med, or Therapy"/>
            <ItemDef OID="CM.CMMODIFY" Name="CMMODIFY" DataType="text" Length="23" Origin="Assigned" def:Label="Modified Reported Name"/>
            <ItemDef OID="CM.CMDECOD" Name="CMDECOD" DataType="text" Length="30" Origin="Assigned" def:Label="Standardized Medication Name">
                <CodeListRef CodeListOID="DRUGDICT_F"/>
            </ItemDef>
            <ItemDef OID="CM.CMCAT" Name="CMCAT" DataType="text" Length="36" Origin="CRF Pages 9, 22" def:Label="Category for Medication">
                <CodeListRef CodeListOID="CMCAT"/>
            </ItemDef>
            <ItemDef OID="CM.CMINDC" Name="CMINDC" DataType="text" Length="27" Origin="CRF Pages 9, 22" def:Label="Indication"/>
            <ItemDef OID="CM.CMCLAS" Name="CMCLAS" DataType="text" Length="45" Origin="Assigned" Comment="Coded to ATC level 3 Term based on CMINDC" def:Label="Medication Class">
                <CodeListRef CodeListOID="DRUGDICT_F"/>
            </ItemDef>
            <ItemDef OID="CM.CMCLASCD" Name="CMCLASCD" DataType="text" Length="3" Origin="Assigned" Comment="Coded to ATC level 3 Code based on CMINDC" def:Label="Medication Class Code">
                <CodeListRef CodeListOID="DRUGDICT_F"/>
            </ItemDef>
            <ItemDef OID="CM.CMDOSTXT" Name="CMDOSTXT" DataType="text" Length="4" Origin="CRF Pages 9, 22" def:Label="Dose Description"/>
            <ItemDef OID="CM.CMDOSU" Name="CMDOSU" DataType="text" Length="6" Origin="CRF Pages 9, 22" def:Label="Dose Units">
                <CodeListRef CodeListOID="CMUNIT"/>
            </ItemDef>
            <ItemDef OID="CM.CMDOSFRQ" Name="CMDOSFRQ" DataType="text" Length="5" Origin="CRF Page 22" def:Label="Dosing Frequency Per Interval">
                <CodeListRef CodeListOID="FREQ"/>
            </ItemDef>
            <ItemDef OID="CM.CMROUTE" Name="CMROUTE" DataType="text" Length="12" Origin="Protocol, CRF Page 22" def:Label="Route of Administration">
                <CodeListRef CodeListOID="ROUTE"/>
            </ItemDef>
            <ItemDef OID="CM.CMSTDTC" Name="CMSTDTC" DataType="date" Length="10" Origin="CRF Pages 9, 22" def:Label="Start Date/Time of Medication"/>
            <ItemDef OID="CM.CMENDTC" Name="CMENDTC" DataType="date" Length="10" Origin="CRF Pages 9, 22" def:Label="End Date/Time of Medication"/>
            <ItemDef OID="CM.CMSTDY" Name="CMSTDY" DataType="integer" Length="6" Origin="Derived" Comment="Derived: CMSTDTC - RFSTDTC +1 if CMSTDTC is on or after RFSTDTC, CMSTDTC - RFSTDTC if CMSTDTC precedes RFSTDTC" def:Label="Study Day of Start of Medication"/>
            <ItemDef OID="CM.CMENDY" Name="CMENDY" DataType="integer" Length="4" Origin="Derived" Comment="Derived: CMENDTC - RFSTDTC +1 if CMENDTC is on or after RFSTDTC,  CMENDTC - RFSTDTC if CMENDTC precedes RFSTDTC" def:Label="Study Day of End of Medication"/>
            <ItemDef OID="CM.CMENRF" Name="CMENRF" DataType="text" Length="6" Origin="CRF Page 22" def:Label="End Relative to Reference Period">
                <CodeListRef CodeListOID="CMENRF"/>
            </ItemDef>
            <ItemDef OID="DA.DASEQ" Name="DASEQ" DataType="integer" Length="1" Origin="Derived" Comment="Sequential number identifying records within each USUBJID and generated using the key sequence of the domain." def:Label="Sequence Number"/>
            <ItemDef OID="DA.DATESTCD" Name="DATESTCD" DataType="text" Length="7" Origin="Assigned" def:Label="Short Name of Accountability Assessment">
                <def:ValueListRef ValueListOID="ValueList.DA.DATESTCD"/>
            </ItemDef>
            <ItemDef OID="DA.DATEST" Name="DATEST" DataType="text" Length="25" Origin="CRF Page 19" def:Label="Name of Accountability Assessment"/>
            <ItemDef OID="DA.DAORRES" Name="DAORRES" DataType="text" Length="2" Origin="CRF Page 19" def:Label="Assessment Result in Original Units"/>
            <ItemDef OID="DA.DAORRESU" Name="DAORRESU" DataType="text" Length="7" Origin="CRF Page 19" def:Label="Original Units"/>
            <ItemDef OID="DA.DASTRESC" Name="DASTRESC" DataType="text" Length="2" Origin="Derived" Comment="Equal to DAORRES" def:Label="Assessment Result in Std Format"/>
            <ItemDef OID="DA.DASTRESN" Name="DASTRESN" DataType="integer" Length="2" Origin="Derived" Comment="Equal to numeric value of DAORRES" def:Label="Numeric Result/Finding in Standard Units"/>
            <ItemDef OID="DA.DASTRESU" Name="DASTRESU" DataType="text" Length="7" Origin="Derived" def:Label="Assessment Standard Units"/>
            <ItemDef OID="DA.VISITNUM" Name="VISITNUM" DataType="integer" Length="2" Origin="CRF Pages 10, 12, 13, 14, 15, 17" Comment="Derived based on DADTC using the SV domain" def:Label="Visit Number"/>
            <ItemDef OID="DA.VISIT" Name="VISIT" DataType="text" Length="8" Origin="Assigned" Comment="Assigned from the TV domain based on the VISITNUM" def:Label="Visit Name"/>
            <ItemDef OID="DA.VISITDY" Name="VISITDY" DataType="integer" Length="3" Origin="Protocol" def:Label="Planned Study Day of Visit"/>
            <ItemDef OID="DA.DADTC" Name="DADTC" DataType="date" Length="10" Origin="CRF Page 19" def:Label="Date/Time of Accountability Assessment"/>
            <ItemDef OID="DA.DADY" Name="DADY" DataType="integer" Length="3" Origin="Derived" Comment="Calculation: = DADTC - RFSTDTC+1 if DADTC is on or after RFSTDTC, Calculation = DADTC - RFSTDTC if DADTC precedes RFSTDTC." def:Label="Study Day of Accountability Assessment"/>
            <ItemDef OID="STUDYID" Name="STUDYID" DataType="text" Length="7" Origin="Protocol" def:Label="Study Identifier"/>
            <ItemDef OID="DM.SUBJID" Name="SUBJID" DataType="text" Length="6" Origin="CRF Page 3" def:Label="Subject Identifier for the Study"/>
            <ItemDef OID="DM.RFSTDTC" Name="RFSTDTC" DataType="date" Length="10" Origin="Derived" Comment="For safety subjects equal to first date/time of study drug.  Null for screen failures." def:Label="Subject Reference Start Date/Time"/>
            <ItemDef OID="DM.RFENDTC" Name="RFENDTC" DataType="date" Length="10" Origin="Derived" Comment="For safety subjects = termination date.  Null for screen failures." def:Label="Subject Reference End Date/Time"/>
            <ItemDef OID="DM.SITEID" Name="SITEID" DataType="text" Length="3" Origin="CRF Page 3" def:Label="Study Site Identifier"/>
            <ItemDef OID="DM.BRTHDTC" Name="BRTHDTC" DataType="date" Length="10" Origin="CRF Page 6" def:Label="Date/Time of Birth"/>
            <ItemDef OID="DM.AGE" Name="AGE" DataType="integer" Length="2" Origin="Derived" Comment="Screening Date - Birth date" def:Label="Age"/>
            <ItemDef OID="DM.AGEU" Name="AGEU" DataType="text" Length="5" Origin="Derived" Comment="Defaulted to YEARS" def:Label="Age Units"/>
            <ItemDef OID="DM.SEX" Name="SEX" DataType="text" Length="1" Origin="CRF Page 6" def:Label="Sex">
                <CodeListRef CodeListOID="SEX"/>
            </ItemDef>
            <ItemDef OID="DM.RACE" Name="RACE" DataType="text" Length="40" Origin="CRF Page 6" def:Label="Race">
                <CodeListRef CodeListOID="RACE"/>
            </ItemDef>
            <ItemDef OID="DM.ETHNIC" Name="ETHNIC" DataType="text" Length="22" Origin="CRF Page 6" def:Label="Ethnicity">
                <CodeListRef CodeListOID="ETHNIC"/>
            </ItemDef>
            <ItemDef OID="DM.ARMCD" Name="ARMCD" DataType="text" Length="8" Origin="Derived" Comment="Derived from arm code in TRIAL ARM (TA) based on Randomization Number." def:Label="Planned Arm Code">
                <CodeListRef CodeListOID="ARMCD"/>
            </ItemDef>
            <ItemDef OID="DM.ARM" Name="ARM" DataType="text" Length="20" Origin="Derived" Comment="From description of arm in TRIAL ARM (TA) based on Randomization Number" def:Label="Description of Planned Arm">
                <CodeListRef CodeListOID="ARM"/>
            </ItemDef>
            <ItemDef OID="DM.COUNTRY" Name="COUNTRY" DataType="text" Length="3" Origin="Assigned" def:Label="Country">
                <CodeListRef CodeListOID="ISO3166"/>
            </ItemDef>
            <ItemDef OID="DS.DSSEQ" Name="DSSEQ" DataType="integer" Length="1" Origin="Derived" Comment="Sequential number identifying records within each USUBJID and generated using the key sequence of the domain." def:Label="Sequence Number"/>
            <ItemDef OID="DS.DSTERM" Name="DSTERM" DataType="text" Length="34" Origin="CRF Pages 6, 16, 18" def:Label="Reported Term for the Disposition Event">
                <CodeListRef CodeListOID="TREASFF"/>
            </ItemDef>
            <ItemDef OID="DS.DSDECOD" Name="DSDECOD" DataType="text" Length="21" Origin="CRF Pages 6, 16, 18" Comment="CRF controlled terminology was mapped to match CDISC controlled terminology." def:Label="Standardized Disposition Term">
                <CodeListRef CodeListOID="NCOMPLT"/>
            </ItemDef>
            <ItemDef OID="DS.DSCAT" Name="DSCAT" DataType="text" Length="18" Origin="Assigned" def:Label="Category for Disposition Event">
                <CodeListRef CodeListOID="DSCAT"/>
            </ItemDef>
            <ItemDef OID="DS.EPOCH" Name="EPOCH" DataType="text" Length="9" Origin="Assigned" def:Label="Epoch">
                <CodeListRef CodeListOID="EPOCH"/>
            </ItemDef>
            <ItemDef OID="DS.DSSTDTC" Name="DSSTDTC" DataType="date" Length="10" Origin="CRF Pages 6, 16, 18" def:Label="Start Date/Time of Disposition Event"/>
            <ItemDef OID="DS.DSSTDY" Name="DSSTDY" DataType="integer" Length="3" Origin="Derived" Comment="Calculation: = DSSTDTC - RFSTDTC+1 if DSSTDTC is on or after RFSTDTC; Calculation = DSSTDTC - RFSTDTC if DSSTDTC precedes RFSTDTC; Equal to missing if RFSTDTC is missing." def:Label="Study Day of Start of Disposition Event"/>
            <ItemDef OID="EG.EGSEQ" Name="EGSEQ" DataType="integer" Length="2" Origin="Derived" Comment="Sequential number identifying records within each USUBJID and generated using the key sequence of the domain." def:Label="Sequence Number"/>
            <ItemDef OID="EG.EGSPID" Name="EGSPID" DataType="text" Length="6" Origin="Assigned" Comment="ECG parameter ordering variable" def:Label="Sponsor-Defined Identifier"/>
            <ItemDef OID="EG.EGTESTCD" Name="EGTESTCD" DataType="text" Length="6" Origin="Assigned" def:Label="ECG Test or Examination Short Name">
                <def:ValueListRef ValueListOID="ValueList.EG.EGTESTCD"/>
            </ItemDef>
            <ItemDef OID="EG.EGTEST" Name="EGTEST" DataType="text" Length="40" Origin="CRF Page 12" def:Label="ECG Test or Examination Name"/>
            <ItemDef OID="EG.EGPOS" Name="EGPOS" DataType="text" Length="6" Origin="Protocol" Comment="Equal to SUPINE" def:Label="ECG Position of Subject"/>
            <ItemDef OID="EG.EGORRES" Name="EGORRES" DataType="text" Length="15" Origin="CRF Page 12" def:Label="Result or Finding in Original Units"/>
            <ItemDef OID="EG.EGORRESU" Name="EGORRESU" DataType="text" Length="4" Origin="CRF Page 12" def:Label="Original Units"/>
            <ItemDef OID="EG.EGSTRESC" Name="EGSTRESC" DataType="text" Length="15" Origin="Derived" Comment="Data collected in non-standard units is converted using standard conversion factors to standard units." def:Label="Character Result/Finding in Std Format"/>
            <ItemDef OID="EG.EGSTRESN" Name="EGSTRESN" DataType="float" Length="5" SignificantDigits="1" Origin="Derived" Comment="When EGSTRESC contains numeric data the numeric equivalent is derived in EGSTRESN" def:Label="Numeric Result/Finding in Standard Units"/>
            <ItemDef OID="EG.EGSTRESU" Name="EGSTRESU" DataType="text" Length="9" Origin="Derived" def:Label="Standard Units"/>
            <ItemDef OID="EG.EGBLFL" Name="EGBLFL" DataType="text" Length="1" Origin="Derived" Comment="Derivation of baseline: Safety subjects only: EGBLFL=Y for last non missing record on or before the first dose date (RFSTDTC)." def:Label="Baseline Flag">
                <CodeListRef CodeListOID="NY"/>
            </ItemDef>
            <ItemDef OID="EG.EGDRVFL" Name="EGDRVFL" DataType="text" Length="1" Origin="Derived" Comment="Equal to Y for derived EGTESTCDs QTCB and QTCF" def:Label="Derived Flag">
                <CodeListRef CodeListOID="NY"/>
            </ItemDef>
            <ItemDef OID="EG.EGEVAL" Name="EGEVAL" DataType="text" Length="12" Origin="Derived" Comment="Equal to INVESTIGATOR for CRF data" def:Label="Evaluator"/>
            <ItemDef OID="EG.VISITNUM" Name="VISITNUM" DataType="integer" Length="2" Origin="CRF Page 12" def:Label="Visit Number"/>
            <ItemDef OID="EG.VISIT" Name="VISIT" DataType="text" Length="7" Origin="CRF Page 12" def:Label="Visit Name"/>
            <ItemDef OID="EG.VISITDY" Name="VISITDY" DataType="integer" Length="3" Origin="Protocol" def:Label="Planned Study Day of Visit"/>
            <ItemDef OID="EG.EGDTC" Name="EGDTC" DataType="date" Length="10" Origin="CRF Page 12" def:Label="Date/Time of ECG"/>
            <ItemDef OID="EG.EGDY" Name="EGDY" DataType="integer" Length="3" Origin="Derived" Comment="Calculation: = EGDTC-RFSTDTC+1 if EGDTC is on or after RFTSDTC, Calculation = EGDTC - RFSTDTC if EGDTC precedes RFSTDTC." def:Label="Study Day of ECG"/>
            <ItemDef OID="EX.EXSEQ" Name="EXSEQ" DataType="integer" Length="1" Origin="Derived" Comment="Sequential number identifying records within each USUBJID and generated using the key sequence of the domain." def:Label="Sequence Number"/>
            <ItemDef OID="EX.EXTRT" Name="EXTRT" DataType="text" Length="20" Origin="Derived" Comment="Derived from ARM, ARMCD" def:Label="Name of Actual Treatment">
                <CodeListRef CodeListOID="EXTRT"/>
            </ItemDef>
            <ItemDef OID="EX.EXDOSE" Name="EXDOSE" DataType="integer" Length="2" Origin="Derived" Comment="Derived from ARM, ARMCD" def:Label="Dose per Administration"/>
            <ItemDef OID="EX.EXDOSU" Name="EXDOSU" DataType="text" Length="2" Origin="Derived" Comment="Derived from ARM, ARMCD - equal to mg" def:Label="Dose Units"/>
            <ItemDef OID="EX.EXDOSFRM" Name="EXDOSFRM" DataType="text" Length="7" Origin="CRF Page 20" def:Label="Dose Form">
                <CodeListRef CodeListOID="FRM"/>
            </ItemDef>
            <ItemDef OID="EX.EXDOSTOT" Name="EXDOSTOT" DataType="integer" Length="2" Origin="Derived" Comment="Derived: Number of administrations per day (QVAL where QNAM=SMNO) times EXDOSE" def:Label="Total Daily Dose"/>
            <ItemDef OID="EX.EXSTDTC" Name="EXSTDTC" DataType="date" Length="10" Origin="CRF Page 20" def:Label="Start Date/Time of Treatment"/>
            <ItemDef OID="EX.EXENDTC" Name="EXENDTC" DataType="date" Length="10" Origin="CRF Page 20" def:Label="End Date/Time of Treatment"/>
            <ItemDef OID="EX.EXSTDY" Name="EXSTDY" DataType="integer" Length="2" Origin="Derived" Comment="Calculation: = EXSTDTC - RFSTDTC+1 if EXSTDTC is on or after RFSTDTC, Calculation = EXSTDTC - RFSTDTC if EXSTDTC precedes RFSTDTC." def:Label="Study Day of Start of Treatment"/>
            <ItemDef OID="EX.EXENDY" Name="EXENDY" DataType="integer" Length="2" Origin="Derived" Comment="Calculation: = EXENDTC-RFSTDTC+1 if EXENDTC is on or after RFSTDTC, Calculation = EXENDTC - RFSTDTC if EXENDTC precedes RFSTDTC." def:Label="Study Day of End of Treatment"/>
            <ItemDef OID="IE.IESEQ" Name="IESEQ" DataType="integer" Length="1" Origin="Derived" Comment="Sequential number identifying records within each USUBJID and generated using the key sequence of the domain." def:Label="Sequence Number"/>
            <ItemDef OID="IE.IETESTCD" Name="IETESTCD" DataType="text" Length="6" Origin="Assigned" def:Label="Inclusion/Exclusion Criterion Short Name"/>
            <ItemDef OID="IE.IETEST" Name="IETEST" DataType="text" Length="54" Origin="CRF Pages 4, 5" def:Label="Inclusion/Exclusion Criterion"/>
            <ItemDef OID="IE.IECAT" Name="IECAT" DataType="text" Length="9" Origin="CRF Pages 4, 5" def:Label="Inclusion/Exclusion Category">
                <def:ValueListRef ValueListOID="ValueList.IE.IECAT"/>
            </ItemDef>
            <ItemDef OID="IE.IEORRES" Name="IEORRES" DataType="text" Length="1" Origin="CRF Pages 4, 5" def:Label="I/E Criterion Original Result"/>
            <ItemDef OID="IE.IESTRESC" Name="IESTRESC" DataType="text" Length="1" Origin="Derived" Comment="Derived from IEORRES" def:Label="I/E Criterion Result in Std Format"/>
            <ItemDef OID="IE.VISITNUM" Name="VISITNUM" DataType="integer" Length="1" Origin="CRF Page 4, 5" def:Label="Visit Number"/>
            <ItemDef OID="IE.VISIT" Name="VISIT" DataType="text" Length="6" Origin="CRF Page 4, 5" def:Label="Visit Name"/>
            <ItemDef OID="IE.IEDTC" Name="IEDTC" DataType="date" Length="10" Origin="CRF Pages 4, 5" def:Label="Date/Time of Collection"/>
            <ItemDef OID="LB.LBSEQ" Name="LBSEQ" DataType="integer" Length="2" Origin="Derived" Comment="Sequential number identifying records within each USUBJID and generated using the key sequence of the domain." def:Label="Sequence Number"/>
            <ItemDef OID="LB.LBREFID" Name="LBREFID" DataType="text" Length="7" Origin="eDT" Comment="Accession number" def:Label="Specimen ID"/>
            <ItemDef OID="LB.LBTESTCD" Name="LBTESTCD" DataType="text" Length="7" Origin="Assigned" def:Label="Lab Test or Examination Short Name"/>
            <ItemDef OID="LB.LBTEST" Name="LBTEST" DataType="text" Length="22" Origin="eDT" def:Label="Lab Test or Examination Name"/>
            <ItemDef OID="LB.LBCAT" Name="LBCAT" DataType="text" Length="10" Origin="eDT" def:Label="Category for Lab Test">
                <def:ValueListRef ValueListOID="ValueList.LB.LBCAT"/>
            </ItemDef>
            <ItemDef OID="LB.LBORRES" Name="LBORRES" DataType="text" Length="8" Origin="eDT" def:Label="Result or Finding in Original Units"/>
            <ItemDef OID="LB.LBORRESU" Name="LBORRESU" DataType="text" Length="7" Origin="eDT" def:Label="Original Units"/>
            <ItemDef OID="LB.LBORNRLO" Name="LBORNRLO" DataType="text" Length="8" Origin="eDT" def:Label="Reference Range Lower Limit in Orig Unit"/>
            <ItemDef OID="LB.LBORNRHI" Name="LBORNRHI" DataType="text" Length="8" Origin="eDT" def:Label="Reference Range Upper Limit in Orig Unit"/>
            <ItemDef OID="LB.LBSTRESC" Name="LBSTRESC" DataType="text" Length="8" Origin="eDT" def:Label="Character Result/Finding in Std Format"/>
            <ItemDef OID="LB.LBSTRESN" Name="LBSTRESN" DataType="float" Length="5" SignificantDigits="2" Origin="eDT" def:Label="Numeric Result/Finding in Standard Units"/>
            <ItemDef OID="LB.LBSTRESU" Name="LBSTRESU" DataType="text" Length="7" Origin="eDT" def:Label="Standard Units"/>
            <ItemDef OID="LB.LBSTNRLO" Name="LBSTNRLO" DataType="float" Length="4" SignificantDigits="2" Origin="eDT" def:Label="Reference Range Lower Limit-Std Units"/>
            <ItemDef OID="LB.LBSTNRHI" Name="LBSTNRHI" DataType="float" Length="4" SignificantDigits="2" Origin="eDT" def:Label="Reference Range Upper Limit-Std Units"/>
            <ItemDef OID="LB.LBSTNRC" Name="LBSTNRC" DataType="text" Length="19" Origin="eDT" def:Label="Reference Range for Char Rslt-Std Units"/>
            <ItemDef OID="LB.LBNRIND" Name="LBNRIND" DataType="text" Length="20" Origin="Derived" Comment="Reference Range Indicator based upon standard results and ranges." def:Label="Reference Range Indicator">
                <CodeListRef CodeListOID="NRIND"/>
            </ItemDef>
            <ItemDef OID="LB.LBSPEC" Name="LBSPEC" DataType="text" Length="5" Origin="eDT" def:Label="Specimen Type">
                <CodeListRef CodeListOID="SPECTYPE"/>
            </ItemDef>
            <ItemDef OID="LB.LBMETHOD" Name="LBMETHOD" DataType="text" Length="8" Origin="eDT" def:Label="Method of Test or Examination">
                <CodeListRef CodeListOID="METHOD"/>
            </ItemDef>
            <ItemDef OID="LB.LBBLFL" Name="LBBLFL" DataType="text" Length="1" Origin="Derived" Comment="Derivation of baseline: Safety subjects only: LBBLFL=Y for last non missing record on or before the first dose date (RFSTDTC)." def:Label="Baseline Flag">
                <CodeListRef CodeListOID="NY"/>
            </ItemDef>
            <ItemDef OID="LB.LBFAST" Name="LBFAST" DataType="text" Length="1" Origin="eDT" def:Label="Fasting Status">
                <CodeListRef CodeListOID="NY"/>
            </ItemDef>
            <ItemDef OID="LB.VISITNUM" Name="VISITNUM" DataType="integer" Length="2" Origin="Derived" Comment="Derived from Visit, Day Number and Trial Visit (TV)." def:Label="Visit Number"/>
            <ItemDef OID="LB.VISIT" Name="VISIT" DataType="text" Length="7" Origin="eDT" def:Label="Visit Name"/>
            <ItemDef OID="LB.VISITDY" Name="VISITDY" DataType="integer" Length="3" Origin="Protocol" def:Label="Planned Study Day of Visit"/>
            <ItemDef OID="LB.LBDTC" Name="LBDTC" DataType="datetime" Length="16" Origin="eDT" def:Label="Date/Time of Specimen Collection"/>
            <ItemDef OID="LB.LBDY" Name="LBDY" DataType="integer" Length="3" Origin="Derived" Comment="Calculation: = LBDTC-RFSTDTC+1 if LBDTC is on or after RFSTDTC, Calculation = LBDTC - RFSTDTC if LBDTC precedes RFSTDTC." def:Label="Study Day of Specimen Collection"/>
            <ItemDef OID="MH.MHSEQ" Name="MHSEQ" DataType="integer" Length="1" Origin="Derived" Comment="Sequential number identifying records within each USUBJID and generated using the key sequence of the domain." def:Label="Sequence Number"/>
            <ItemDef OID="MH.MHTERM" Name="MHTERM" DataType="text" Length="169" Origin="CRF Pages 7, 8" def:Label="Reported Term for the Medical History"/>
            <ItemDef OID="MH.MHCAT" Name="MHCAT" DataType="text" Length="28" Origin="CRF Pages 7, 8" def:Label="Category for Medical History">
                <CodeListRef CodeListOID="MHCAT"/>
            </ItemDef>
            <ItemDef OID="MH.MHPRESP" Name="MHPRESP" DataType="text" Length="2" Origin="Assigned" def:Label="Medical History Event Pre-Specified">
                <CodeListRef CodeListOID="NY"/>
            </ItemDef>
            <ItemDef OID="MH.MHOCCUR" Name="MHOCCUR" DataType="text" Length="2" Origin="Assigned" def:Label="Medical History Occurrence">
                <CodeListRef CodeListOID="NY"/>
            </ItemDef>
            <ItemDef OID="MH.MHBODSYS" Name="MHBODSYS" DataType="text" Length="23" Origin="Assigned" Comment="Assigned for Medical History but not Psychiatric History" def:Label="Body System or Organ Class">
                <CodeListRef CodeListOID="MHBODSYS"/>
            </ItemDef>
            <ItemDef OID="MH.MHDTC" Name="MHDTC" DataType="date" Length="10" Origin="CRF Pages 7, 8" def:Label="Date/Time of History Collection"/>
            <ItemDef OID="MH.MHSTDTC" Name="MHSTDTC" DataType="date" Length="10" Origin="CRF Pages 7, 8" def:Label="Start Date/Time of Medical History Event"/>
            <ItemDef OID="MH.MHENRF" Name="MHENRF" DataType="text" Length="30" Origin="CRF Page 8" def:Label="End Relative to Reference Period">
                <CodeListRef CodeListOID="MHENRF"/>
            </ItemDef>
            <ItemDef OID="PE.PESEQ" Name="PESEQ" DataType="integer" Length="2" Origin="Derived" Comment="Sequential number identifying records within each USUBJID and generated using the key sequence of the domain." def:Label="Sequence Number"/>
            <ItemDef OID="PE.PETESTCD" Name="PETESTCD" DataType="text" Length="4" Origin="Assigned" def:Label="Body System Examined Short Name">
                <def:ValueListRef ValueListOID="ValueList.PE.PETESTCD"/>
            </ItemDef>
            <ItemDef OID="PE.PETEST" Name="PETEST" DataType="text" Length="29" Origin="CRF Page 10" def:Label="Body System Examined"/>
            <ItemDef OID="PE.PEORRES" Name="PEORRES" DataType="text" Length="36" Origin="CRF Page 10" def:Label="Verbatim Examination Finding"/>
            <ItemDef OID="PE.PESTRESC" Name="PESTRESC" DataType="text" Length="26" Origin="Derived" Comment="Derived from PEORRES" def:Label="Character Result/Finding in Std Format"/>
            <ItemDef OID="PE.VISITNUM" Name="VISITNUM" DataType="integer" Length="2" Origin="CRF Page 10" def:Label="Visit Number"/>
            <ItemDef OID="PE.VISIT" Name="VISIT" DataType="text" Length="7" Origin="CRF Page 10" def:Label="Visit Name"/>
            <ItemDef OID="PE.VISITDY" Name="VISITDY" DataType="integer" Length="3" Origin="Protocol" def:Label="Planned Study Day of Visit"/>
            <ItemDef OID="PE.PEDTC" Name="PEDTC" DataType="date" Length="10" Origin="CRF Page 10" def:Label="Date/Time of Examination"/>
            <ItemDef OID="PE.PEDY" Name="PEDY" DataType="integer" Length="3" Origin="Derived" Comment="Calculation: = PEDTC-RFSTDTC+1 if PEDTC is on or after RFSTDTC, Calculation = PEDTC - RFSTDTC if PEDTC precedes RFSTDTC." def:Label="Study Day of Examination"/>
            <ItemDef OID="QS.QSSEQ" Name="QSSEQ" DataType="integer" Length="3" Origin="Derived" Comment="Sequential number identifying records within each USUBJID and generated using the key sequence of the domain." def:Label="Sequence Number"/>
            <ItemDef OID="QS.QSTESTCD" Name="QSTESTCD" DataType="text" Length="7" Origin="Assigned" def:Label="Question Short Name"/>
            <ItemDef OID="QS.QSTEST" Name="QSTEST" DataType="text" Length="37" Origin="QSMM-CRF Page 13, ;QSCS-CRF Page 14, 15, ;QSCG-CRF Page 17;" def:Label="Question Name"/>
            <ItemDef OID="QS.QSCAT" Name="QSCAT" DataType="text" Length="50" Origin="QSMM-CRF Page 13, ;QSCS-CRF Page 14, 15, ;QSCG-CRF Page 17;" def:Label="Category of Question">
                <def:ValueListRef ValueListOID="ValueList.QS.QSCAT"/>
            </ItemDef>
            <ItemDef OID="QS.QSSCAT" Name="QSSCAT" DataType="text" Length="40" Origin="CRF Pages 14, 15" def:Label="Subcategory for Question"/>
            <ItemDef OID="QS.QSORRES" Name="QSORRES" DataType="text" Length="20" Origin="QSMM-CRF Page 13, ;QSCS-CRF Page 14, 15, ;QSCG-CRF Page 17;" def:Label="Finding in Original Units"/>
            <ItemDef OID="QS.QSSTRESC" Name="QSSTRESC" DataType="text" Length="2" Origin="Derived" Comment="If questionnaire result is a numerically relevant code then code stored here; else character result equal to QSORRES. Character results contain mixed case data." def:Label="Character Result/Finding in Std Format"/>
            <ItemDef OID="QS.QSSTRESN" Name="QSSTRESN" DataType="integer" Length="2" Origin="Derived" Comment="When QSORRES is numeric then QSSTRESN equal to numeric result" def:Label="Numeric Finding in Standard Units"/>
            <ItemDef OID="QS.QSBLFL" Name="QSBLFL" DataType="text" Length="1" Origin="Derived" Comment="Derivation of baseline: Safety subjects only: QSBLFL=Y for last non missing record on or before the first dose date (RFSTDTC)." def:Label="Baseline Flag">
                <CodeListRef CodeListOID="NY"/>
            </ItemDef>
            <ItemDef OID="QS.VISITNUM" Name="VISITNUM" DataType="integer" Length="2" Origin="QSMM-CRF Page 13, ;QSCS-CRF Page 14, 15, ;QSCG-CRF Page 17;" def:Label="Visit Number"/>
            <ItemDef OID="QS.VISIT" Name="VISIT" DataType="text" Length="8" Origin="QSMM-CRF Page 13, ;QSCS-CRF Page 14, 15, ;QSCG-CRF Page 17;" def:Label="Visit Name"/>
            <ItemDef OID="QS.VISITDY" Name="VISITDY" DataType="integer" Length="3" Origin="Protocol" def:Label="Planned Study Day of Visit"/>
            <ItemDef OID="QS.QSDTC" Name="QSDTC" DataType="date" Length="10" Origin="QSMM-CRF Page 13, ;QSCS-CRF Page 14, 15, ;QSCG-CRF Page 17;" def:Label="Date/Time of Finding"/>
            <ItemDef OID="QS.QSDY" Name="QSDY" DataType="integer" Length="3" Origin="Derived" Comment="Calculation: = QSDTC-RFSTDTC+1 if QSDTC is on or after RFSTDTC, Calculation = QSDTC - RFSTDTC if QSDTC precedes RFSTDTC." def:Label="Study Day of Finding"/>
            <ItemDef OID="QS.QSEVLINT" Name="QSEVLINT" DataType="text" Length="20" Origin="CRF Page 14" def:Label="Evaluation Interval"/>
            <ItemDef OID="SC.SCSEQ" Name="SCSEQ" DataType="integer" Length="1" Origin="Derived" Comment="Sequential number identifying records within each USUBJID and generated using the key sequence of the domain." def:Label="Sequence Number"/>
            <ItemDef OID="SC.SCTESTCD" Name="SCTESTCD" DataType="text" Length="8" Origin="Assigned" def:Label="Subject Characteristic Short Name">
                <def:ValueListRef ValueListOID="ValueList.SC.SCTESTCD"/>
            </ItemDef>
            <ItemDef OID="SC.SCTEST" Name="SCTEST" DataType="text" Length="16" Origin="CRF Page 6" def:Label="Subject Characteristic"/>
            <ItemDef OID="SC.SCORRES" Name="SCORRES" DataType="text" Length="24" Origin="CRF Pages 3, 6" def:Label="Result or Finding in Original Units"/>
            <ItemDef OID="SC.SCSTRESC" Name="SCSTRESC" DataType="text" Length="24" Origin="Derived" Comment="Equal to SCORRES" def:Label="Character Result/Finding in Std Format"/>
            <ItemDef OID="SC.SCDTC" Name="SCDTC" DataType="date" Length="10" Origin="CRF Page 6" def:Label="Date/Time of Collection"/>
            <ItemDef OID="SC.SCDY" Name="SCDY" DataType="integer" Length="3" Origin="Derived" Comment="Calculation: = SCDTC-RFSTDTC+1 if SCDTC is on or after RFSTDTC, Calculation = SCDTC - RFSTDTC if SCDTC precedes RFSTDTC." def:Label="Study Day of Examination"/>
            <ItemDef OID="SE.SESEQ" Name="SESEQ" DataType="integer" Length="1" Origin="Derived" Comment="Sequential number identifying records within each USUBJID and generated using the key sequence of the domain." def:Label="Sequence Number"/>
            <ItemDef OID="SE.ETCD" Name="ETCD" DataType="text" Length="7" Origin="Assigned" def:Label="Element Code"/>
            <ItemDef OID="SE.ELEMENT" Name="ELEMENT" DataType="text" Length="40" Origin="Protocol" def:Label="Description of Element"/>
            <ItemDef OID="SE.SESTDTC" Name="SESTDTC" DataType="date" Length="10" Origin="Derived" Comment="If Element = SCREEN, derived from SVSTDTC where VISIT = SCREENING or from DS where DSDECOD = 'INFORMED CONSENT', whichever is earliest.  If Element = EOS, derived from DS where DSCAT = DISPOSITION EVENT. For treatment Elements, derived from first EXSTDTC for the element." def:Label="Start Date/Time of Element"/>
            <ItemDef OID="SE.SEENDTC" Name="SEENDTC" DataType="date" Length="10" Origin="Derived" Comment="If Element = SCREEN, derived from SVENDTC where VISIT = SCREENING.  If Element = EOS, derived from DS where DSCAT = DISPOSITION EVENT or from the latest EXENDTC from EX whichever is later.  For treatment Elements, derived from last EXENDTC for the element ." def:Label="End Date/Time of Element"/>
            <ItemDef OID="SE.TAETORD" Name="TAETORD" DataType="integer" Length="1" Origin="Protocol" def:Label="Planned Order of Elements within Arm"/>
            <ItemDef OID="RDOMAIN" Name="RDOMAIN" DataType="text" Length="2" Origin="Derived" Comment="Domain abbreviation  from where data originated." def:Label="Related Domain Abbreviation"/>
            <ItemDef OID="SUPPAE.IDVAR" Name="IDVAR" DataType="text" Length="5" Origin="Assigned" Comment="Variable identifying the related record in RDOMAIN." def:Label="Identifying Variable"/>
            <ItemDef OID="SUPPAE.IDVARVAL" Name="IDVARVAL" DataType="text" Length="1" Origin="Derived" Comment="Value of IDVAR in related domain." def:Label="Identifying Variable Value"/>
            <ItemDef OID="SUPPAE.QNAM" Name="QNAM" DataType="text" Length="7" Origin="Assigned" def:Label="Qualifier Variable Name">
                <def:ValueListRef ValueListOID="ValueList.SUPPAE.QNAM"/>
            </ItemDef>
            <ItemDef OID="SUPPAE.QLABEL" Name="QLABEL" DataType="text" Length="30" Origin="Assigned" def:Label="Qualifier Variable Label"/>
            <ItemDef OID="SUPPAE.QVAL" Name="QVAL" DataType="text" Length="60" Origin="Derived" def:Label="Data Value"/>
            <ItemDef OID="SUPPAE.QORIG" Name="QORIG" DataType="text" Length="7" Origin="CRF, Derived" def:Label="Origin"/>
            <ItemDef OID="SUPPAE.QEVAL" Name="QEVAL" DataType="text" Length="7" Origin="Assigned" def:Label="Evaluator"/>
            <ItemDef OID="SUPPCM.IDVAR" Name="IDVAR" DataType="text" Length="5" Origin="Assigned" Comment="Variable identifying the related record in RDOMAIN." def:Label="Identifying Variable"/>
            <ItemDef OID="SUPPCM.IDVARVAL" Name="IDVARVAL" DataType="text" Length="2" Origin="Derived" Comment="Value of IDVAR in related domain." def:Label="Identifying Variable Value"/>
            <ItemDef OID="SUPPCM.QNAM" Name="QNAM" DataType="text" Length="8" Origin="Assigned" def:Label="Qualifier Variable Name">
                <def:ValueListRef ValueListOID="ValueList.SUPPCM.QNAM"/>
            </ItemDef>
            <ItemDef OID="SUPPCM.QLABEL" Name="QLABEL" DataType="text" Length="26" Origin="Assigned" def:Label="Qualifier Variable Label"/>
            <ItemDef OID="SUPPCM.QVAL" Name="QVAL" DataType="text" Length="43" Origin="Derived" def:Label="Data Value"/>
            <ItemDef OID="SUPPCM.QORIG" Name="QORIG" DataType="text" Length="10" Origin="CRF, Derived" def:Label="Origin"/>
            <ItemDef OID="SUPPCM.QEVAL" Name="QEVAL" DataType="text" Length="7" Origin="Assigned" def:Label="Evaluator"/>
            <ItemDef OID="SUPPDM.IDVAR" Name="IDVAR" DataType="text" Length="1" Origin="Assigned" Comment="Variable identifying the related record in RDOMAIN." def:Label="Identifying Variable"/>
            <ItemDef OID="SUPPDM.IDVARVAL" Name="IDVARVAL" DataType="text" Length="1" Origin="Derived" Comment="Value of IDVAR in related domain." def:Label="Identifying Variable Value"/>
            <ItemDef OID="SUPPDM.QNAM" Name="QNAM" DataType="text" Length="8" Origin="Assigned" def:Label="Qualifier Variable Name">
                <def:ValueListRef ValueListOID="ValueList.SUPPDM.QNAM"/>
            </ItemDef>
            <ItemDef OID="SUPPDM.QLABEL" Name="QLABEL" DataType="text" Length="26" Origin="Assigned" def:Label="Qualifier Variable Label"/>
            <ItemDef OID="SUPPDM.QVAL" Name="QVAL" DataType="text" Length="30" Origin="Derived" def:Label="Data Value"/>
            <ItemDef OID="SUPPDM.QORIG" Name="QORIG" DataType="text" Length="11" Origin="CRF, Derived" def:Label="Origin"/>
            <ItemDef OID="SUPPDM.QEVAL" Name="QEVAL" DataType="text" Length="7" Origin="Assigned" def:Label="Evaluator"/>
            <ItemDef OID="SUPPEG.IDVAR" Name="IDVAR" DataType="text" Length="5" Origin="Assigned" Comment="Variable identifying the related record in RDOMAIN." def:Label="Identifying Variable"/>
            <ItemDef OID="SUPPEG.IDVARVAL" Name="IDVARVAL" DataType="text" Length="2" Origin="Derived" Comment="Value of IDVAR in related domain." def:Label="Identifying Variable Value"/>
            <ItemDef OID="SUPPEG.QNAM" Name="QNAM" DataType="text" Length="7" Origin="Assigned" def:Label="Qualifier Variable Name">
                <def:ValueListRef ValueListOID="ValueList.SUPPEG.QNAM"/>
            </ItemDef>
            <ItemDef OID="SUPPEG.QLABEL" Name="QLABEL" DataType="text" Length="36" Origin="Assigned" def:Label="Qualifier Variable Label"/>
            <ItemDef OID="SUPPEG.QVAL" Name="QVAL" DataType="text" Length="2" Origin="Derived" def:Label="Data Value"/>
            <ItemDef OID="SUPPEG.QORIG" Name="QORIG" DataType="text" Length="7" Origin="CRF, Derived" def:Label="Origin"/>
            <ItemDef OID="SUPPEG.QEVAL" Name="QEVAL" DataType="text" Length="20" Origin="Assigned" def:Label="Evaluator"/>
            <ItemDef OID="SUPPEX.IDVAR" Name="IDVAR" DataType="text" Length="5" Origin="Assigned" Comment="Variable identifying the related record in RDOMAIN." def:Label="Identifying Variable"/>
            <ItemDef OID="SUPPEX.IDVARVAL" Name="IDVARVAL" DataType="text" Length="1" Origin="Derived" Comment="Value of IDVAR in related domain." def:Label="Identifying Variable Value"/>
            <ItemDef OID="SUPPEX.QNAM" Name="QNAM" DataType="text" Length="4" Origin="Assigned" def:Label="Qualifier Variable Name">
                <def:ValueListRef ValueListOID="ValueList.SUPPEX.QNAM"/>
            </ItemDef>
            <ItemDef OID="SUPPEX.QLABEL" Name="QLABEL" DataType="text" Length="25" Origin="Assigned" def:Label="Qualifier Variable Label"/>
            <ItemDef OID="SUPPEX.QVAL" Name="QVAL" DataType="text" Length="2" Origin="Derived" def:Label="Data Value"/>
            <ItemDef OID="SUPPEX.QORIG" Name="QORIG" DataType="text" Length="11" Origin="CRF, Derived" def:Label="Origin"/>
            <ItemDef OID="SUPPEX.QEVAL" Name="QEVAL" DataType="text" Length="20" Origin="Assigned" def:Label="Evaluator"/>
            <ItemDef OID="SUPPLB.IDVAR" Name="IDVAR" DataType="text" Length="5" Origin="Assigned" Comment="Variable identifying the related record in RDOMAIN." def:Label="Identifying Variable"/>
            <ItemDef OID="SUPPLB.IDVARVAL" Name="IDVARVAL" DataType="text" Length="2" Origin="Derived" Comment="Value of IDVAR in related domain." def:Label="Identifying Variable Value"/>
            <ItemDef OID="SUPPLB.QNAM" Name="QNAM" DataType="text" Length="7" Origin="Assigned" def:Label="Qualifier Variable Name">
                <def:ValueListRef ValueListOID="ValueList.SUPPLB.QNAM"/>
            </ItemDef>
            <ItemDef OID="SUPPLB.QLABEL" Name="QLABEL" DataType="text" Length="36" Origin="Assigned" def:Label="Qualifier Variable Label"/>
            <ItemDef OID="SUPPLB.QVAL" Name="QVAL" DataType="text" Length="2" Origin="Derived" def:Label="Data Value"/>
            <ItemDef OID="SUPPLB.QORIG" Name="QORIG" DataType="text" Length="7" Origin="CRF, Derived" def:Label="Origin"/>
            <ItemDef OID="SUPPLB.QEVAL" Name="QEVAL" DataType="text" Length="20" Origin="Assigned" def:Label="Evaluator"/>
            <ItemDef OID="SUPPQS.IDVAR" Name="IDVAR" DataType="text" Length="5" Origin="Assigned" Comment="Variable identifying the related record in RDOMAIN." def:Label="Identifying Variable"/>
            <ItemDef OID="SUPPQS.IDVARVAL" Name="IDVARVAL" DataType="text" Length="50" Origin="Derived" Comment="Value of IDVAR in related domain." def:Label="Identifying Variable Value"/>
            <ItemDef OID="SUPPQS.QNAM" Name="QNAM" DataType="text" Length="7" Origin="Assigned" def:Label="Qualifier Variable Name">
                <def:ValueListRef ValueListOID="ValueList.SUPPQS.QNAM"/>
            </ItemDef>
            <ItemDef OID="SUPPQS.QLABEL" Name="QLABEL" DataType="text" Length="36" Origin="Assigned" def:Label="Qualifier Variable Label"/>
            <ItemDef OID="SUPPQS.QVAL" Name="QVAL" DataType="text" Length="3" Origin="Derived" def:Label="Data Value"/>
            <ItemDef OID="SUPPQS.QORIG" Name="QORIG" DataType="text" Length="7" Origin="CRF, Derived" def:Label="Origin"/>
            <ItemDef OID="SUPPQS.QEVAL" Name="QEVAL" DataType="text" Length="20" Origin="Assigned" def:Label="Evaluator"/>
            <ItemDef OID="SUPPVS.IDVAR" Name="IDVAR" DataType="text" Length="5" Origin="Assigned" Comment="Variable identifying the related record in RDOMAIN." def:Label="Identifying Variable"/>
            <ItemDef OID="SUPPVS.IDVARVAL" Name="IDVARVAL" DataType="text" Length="2" Origin="Derived" Comment="Value of IDVAR in related domain." def:Label="Identifying Variable Value"/>
            <ItemDef OID="SUPPVS.QNAM" Name="QNAM" DataType="text" Length="7" Origin="Assigned" def:Label="Qualifier Variable Name">
                <def:ValueListRef ValueListOID="ValueList.SUPPVS.QNAM"/>
            </ItemDef>
            <ItemDef OID="SUPPVS.QLABEL" Name="QLABEL" DataType="text" Length="36" Origin="Assigned" def:Label="Qualifier Variable Label"/>
            <ItemDef OID="SUPPVS.QVAL" Name="QVAL" DataType="text" Length="2" Origin="Derived" def:Label="Data Value"/>
            <ItemDef OID="SUPPVS.QORIG" Name="QORIG" DataType="text" Length="7" Origin="CRF, Derived" def:Label="Origin"/>
            <ItemDef OID="SUPPVS.QEVAL" Name="QEVAL" DataType="text" Length="20" Origin="Assigned" def:Label="Evaluator"/>
            <ItemDef OID="SV.VISITNUM" Name="VISITNUM" DataType="integer" Length="2" Origin="CRF Page 4, 5, 6, 10, 12, 13, 14, 15, 17" def:Label="Visit Number"/>
            <ItemDef OID="SV.VISIT" Name="VISIT" DataType="text" Length="8" Origin="CRF Pages 4, 5, 6" def:Label="Visit Name"/>
            <ItemDef OID="SV.VISITDY" Name="VISITDY" DataType="integer" Length="3" Origin="Protocol" def:Label="Planned Study Day of Visit"/>
            <ItemDef OID="SV.SVSTDTC" Name="SVSTDTC" DataType="date" Length="10" Origin="CRF Page 4, 5, 6, 10, 12, 13, 14, 15, 17" def:Label="Start Date/Time of Visit"/>
            <ItemDef OID="SV.SVENDTC" Name="SVENDTC" DataType="date" Length="10" Origin="Derived" Comment="Defaulted to SVSTDTC" def:Label="End Date/Time of Visit"/>
            <ItemDef OID="SV.SVSTDY" Name="SVSTDY" DataType="integer" Length="3" Origin="Derived" Comment="Calculation: = SVSTDTC-RFSTDTC+1 if SVSTDTC is on or after RFSTDTC, Calculation = SVSTDTC - RFSTDTC if SVSTDTC precedes RFSTDTC." def:Label="Study Day of Start of Visit"/>
            <ItemDef OID="SV.SVUPDES" Name="SVUPDES" DataType="text" Length="6" Origin="Assigned" def:Label="Description of Unplanned Visit"/>
            <ItemDef OID="TA.ARMCD" Name="ARMCD" DataType="text" Length="8" Origin="Assigned" def:Label="Planned Arm Code">
                <CodeListRef CodeListOID="ARMCD"/>
            </ItemDef>
            <ItemDef OID="TA.ARM" Name="ARM" DataType="text" Length="20" Origin="Protocol" def:Label="Description of Planned Arm">
                <CodeListRef CodeListOID="ARM"/>
            </ItemDef>
            <ItemDef OID="TA.TAETORD" Name="TAETORD" DataType="integer" Length="1" Origin="Assigned" def:Label="Order of Element within Arm"/>
            <ItemDef OID="TA.ETCD" Name="ETCD" DataType="text" Length="8" Origin="Assigned" def:Label="Element Code"/>
            <ItemDef OID="TA.ELEMENT" Name="ELEMENT" DataType="text" Length="40" Origin="Protocol" def:Label="Description of Element"/>
            <ItemDef OID="TA.TABRANCH" Name="TABRANCH" DataType="text" Length="35" Origin="Protocol" def:Label="Branch"/>
            <ItemDef OID="TA.TATRANS" Name="TATRANS" DataType="text" Length="1" Origin="Protocol" def:Label="Transition Rule"/>
            <ItemDef OID="TA.EPOCH" Name="EPOCH" DataType="text" Length="30" Origin="Protocol" def:Label="Epoch"/>
            <ItemDef OID="TE.ETCD" Name="ETCD" DataType="text" Length="8" Origin="Assigned" def:Label="Element Code"/>
            <ItemDef OID="TE.ELEMENT" Name="ELEMENT" DataType="text" Length="40" Origin="Protocol" def:Label="Description of Element"/>
            <ItemDef OID="TE.TESTRL" Name="TESTRL" DataType="text" Length="24" Origin="Protocol" def:Label="Rule for Start of Element"/>
            <ItemDef OID="TE.TEDUR" Name="TEDUR" DataType="text" Length="4" Origin="Protocol" def:Label="Planned Duration of Element"/>
            <ItemDef OID="TI.IETESTCD" Name="IETESTCD" DataType="text" Length="6" Origin="Assigned" def:Label="Incl/Excl Criterion Short Name"/>
            <ItemDef OID="TI.IETEST" Name="IETEST" DataType="text" Length="92" Origin="CRF Pages 4, 5" def:Label="Inclusion/Exclusion Criterion"/>
            <ItemDef OID="TI.IECAT" Name="IECAT" DataType="text" Length="9" Origin="CRF Pages 4, 5" def:Label="Inclusion/Exclusion Category">
                <def:ValueListRef ValueListOID="ValueList.IE.IECAT"/>
            </ItemDef>
            <ItemDef OID="TS.TSSEQ" Name="TSSEQ" DataType="integer" Length="1" Origin="Derived" Comment="Sequential number identifying records within each TSPARM in the domain." def:Label="Sequence Number"/>
            <ItemDef OID="TS.TSPARMCD" Name="TSPARMCD" DataType="text" Length="8" Origin="Assigned" def:Label="Trial Summary Parameter Short Name">
                <def:ValueListRef ValueListOID="ValueList.TS.TSPARMCD"/>
            </ItemDef>
            <ItemDef OID="TS.TSPARM" Name="TSPARM" DataType="text" Length="36" Origin="Assigned" def:Label="Trial Summary Parameter"/>
            <ItemDef OID="TS.TSVAL" Name="TSVAL" DataType="text" Length="57" Origin="Protocol" def:Label="Parameter Value"/>
            <ItemDef OID="TV.VISITNUM" Name="VISITNUM" DataType="integer" Length="2" Origin="Assigned" def:Label="Visit Number"/>
            <ItemDef OID="TV.VISIT" Name="VISIT" DataType="text" Length="12" Origin="CRF Page 4, 5, 6, 10, 12, 13, 14, 15, 17" def:Label="Visit Name"/>
            <ItemDef OID="TV.VISITDY" Name="VISITDY" DataType="integer" Length="3" Origin="Protocol" def:Label="Planned Study Day of Visit"/>
            <ItemDef OID="TV.ARMCD" Name="ARMCD" DataType="text" Length="1" Origin="Assigned" def:Label="Planned Arm Code"/>
            <ItemDef OID="TV.TVSTRL" Name="TVSTRL" DataType="text" Length="30" Origin="Protocol" def:Label="Visit Start Rule"/>
            <ItemDef OID="VS.VSSEQ" Name="VSSEQ" DataType="integer" Length="2" Origin="Derived" Comment="Sequential number identifying records within each USUBJID and generated using the key sequence of the domain." def:Label="Sequence Number"/>
            <ItemDef OID="VS.VSTESTCD" Name="VSTESTCD" DataType="text" Length="20" Origin="Assigned" def:Label="Vital Signs Test Short Name">
                <def:ValueListRef ValueListOID="ValueList.VS.VSTESTCD"/>
            </ItemDef>
            <ItemDef OID="VS.VSTEST" Name="VSTEST" DataType="text" Length="24" Origin="CRF Page 11" def:Label="Vital Signs Test Name"/>
            <ItemDef OID="VS.VSPOS" Name="VSPOS" DataType="text" Length="7" Origin="CRF Page 11" def:Label="Vital Signs Position of Subject"/>
            <ItemDef OID="VS.VSORRES" Name="VSORRES" DataType="text" Length="30" Origin="CRF Page 11" def:Label="Result or Finding in Original Units"/>
            <ItemDef OID="VS.VSORRESU" Name="VSORRESU" DataType="text" Length="20" Origin="CRF Page 11" def:Label="Original Units">
                <CodeListRef CodeListOID="WUNIT"/>
            </ItemDef>
            <ItemDef OID="VS.VSSTRESC" Name="VSSTRESC" DataType="text" Length="30" Origin="Derived" Comment="Data collected in non-standard units (i.e. lbs, inches) is converted using standard conversion factors to standard units." def:Label="Character Result/Finding in Std Format"/>
            <ItemDef OID="VS.VSSTRESN" Name="VSSTRESN" DataType="float" Length="5" SignificantDigits="1" Origin="Derived" Comment="When VSSTRESC contains numeric data the numeric equivalent is derived in VSSTRESN" def:Label="Numeric Result/Finding in Standard Units"/>
            <ItemDef OID="VS.VSSTRESU" Name="VSSTRESU" DataType="text" Length="9" Origin="Derived" Comment="Standard units consistent with CDISC controlled terminology" def:Label="Standard Units">
                <CodeListRef CodeListOID="VSRESU"/>
            </ItemDef>
            <ItemDef OID="VS.VSBLFL" Name="VSBLFL" DataType="text" Length="1" Origin="Derived" Comment="Safety subjects only: VSBLFL=Y for last non missing record on or before the first dose date (RFSTDTC)." def:Label="Baseline Flag">
                <CodeListRef CodeListOID="NY"/>
            </ItemDef>
            <ItemDef OID="VS.VISITNUM" Name="VISITNUM" DataType="integer" Length="2" Origin="CRF Page 11" def:Label="Visit Number"/>
            <ItemDef OID="VS.VISIT" Name="VISIT" DataType="text" Length="8" Origin="CRF Page 11" def:Label="Visit Name"/>
            <ItemDef OID="VS.VISITDY" Name="VISITDY" DataType="integer" Length="3" Origin="Protocol" def:Label="Planned Study Day of Visit"/>
            <ItemDef OID="VS.VSDTC" Name="VSDTC" DataType="date" Length="10" Origin="CRF Page 11" def:Label="Date/Time of Measurements"/>
            <ItemDef OID="VS.VSDY" Name="VSDY" DataType="integer" Length="3" Origin="Derived" Comment="Calculation: = VSDTC-RFSTDTC+1 if VSDTC is on or after RFSTDTC, Calculation = VSDTC - RFSTDTC if VSDTC precedes RFSTDTC." def:Label="Study Day of Vital Signs"/>
            <ItemDef OID="DA.DATESTCD.DISPAMT" Name="DISPAMT" DataType="integer" Length="2" Origin="CRF Page 19" def:Label="Dispensed Amount"/>
            <ItemDef OID="DA.DATESTCD.RETAMT" Name="RETAMT" DataType="integer" Length="2" Origin="CRF Page 19" def:Label="Returned Amount"/>
            <ItemDef OID="EG.EGTESTCD.INTP" Name="INTP" DataType="text" Length="8" Origin="CRF Page 12" def:Label="ECG Interpretation">
                <CodeListRef CodeListOID="NABCLIN"/>
            </ItemDef>
            <ItemDef OID="EG.EGTESTCD.PRMEAN" Name="PRMEAN" DataType="integer" Length="3" Origin="CRF Page 12" def:Label="Summary (Mean) PR Duration"/>
            <ItemDef OID="EG.EGTESTCD.QRSDUR" Name="QRSDUR" DataType="integer" Length="3" Origin="CRF Page 12" def:Label="Summary (Mean) QRS Duration"/>
            <ItemDef OID="EG.EGTESTCD.QTCB" Name="QTCB" DataType="float" Length="5" SignificantDigits="1" Origin="DERIVED" def:Label="QTcB - Bazett's Correction Formula" def:ComputationMethodOID="COMPMETHOD.QTCB"/>
            <ItemDef OID="EG.EGTESTCD.QTCF" Name="QTCF" DataType="float" Length="5" SignificantDigits="1" Origin="DERIVED" def:Label="QTcF - Fridericia's Correction Formula" def:ComputationMethodOID="COMPMETHOD.QTCF"/>
            <ItemDef OID="EG.EGTESTCD.QTMEAN" Name="QTMEAN" DataType="integer" Length="3" Origin="CRF Page 12" def:Label="Summary (Mean) QT Duration"/>
            <ItemDef OID="EG.EGTESTCD.VRMEAN" Name="VRMEAN" DataType="integer" Length="2" Origin="CRF Page 12" def:Label="Summary (Mean) Ventricular Rate"/>
            <ItemDef OID="LB.LBCAT.Chemistry.LBSPEC.BLOOD.LBTESTCD.BILI" Name="BILI" DataType="float" Length="3" SignificantDigits="1" Origin="eDT" def:Label="Bilirubin"/>
            <ItemDef OID="LB.LBCAT.Chemistry.LBSPEC.BLOOD.LBTESTCD.BUN" Name="BUN" DataType="float" Length="4" SignificantDigits="2" Origin="eDT" def:Label="Blood Urea Nitrogen"/>
            <ItemDef OID="LB.LBCAT.Chemistry.LBSPEC.BLOOD.LBTESTCD.GLUC" Name="GLUC" DataType="float" Length="3" SignificantDigits="1" Origin="eDT" def:Label="Glucose"/>
            <ItemDef OID="LB.LBCAT.Urinalysis.LBSPEC.URINE.LBMETHOD.DIPSTICK.LBTESTCD.GLUC" Name="GLUC" DataType="text" Length="8" Origin="eDT" def:Label="Glucose"/>
            <ItemDef OID="LB.LBCAT.Urinalysis.LBSPEC.URINE.LBMETHOD.QUANT.LBTESTCD.GLUC" Name="GLUC" DataType="float" Length="3" SignificantDigits="1" Origin="eDT" def:Label="Glucose"/>
            <ItemDef OID="LB.LBCAT.Hematology.LBSPEC.BLOOD.LBTESTCD.HCT" Name="HCT" DataType="float" Length="4" SignificantDigits="2" Origin="eDT" def:Label="Hematocrit"/>
            <ItemDef OID="LB.LBCAT.Hematology.LBSPEC.BLOOD.LBTESTCD.HGB" Name="HGB" DataType="integer" Length="3" Origin="eDT" def:Label="Hemoglobin"/>
            <ItemDef OID="LB.LBCAT.Hematology.LBSPEC.BLOOD.LBTESTCD.LYM" Name="LYM" DataType="float" Length="4" SignificantDigits="2" Origin="eDT" def:Label="Lymphocytes"/>
            <ItemDef OID="LB.LBCAT.Urinalysis.LBSPEC.URINE.LBTESTCD.OCCBLD" Name="OCCBLD" DataType="text" Length="8" Origin="eDT" def:Label="Occult Blood"/>
            <ItemDef OID="LB.LBCAT.Urinalysis.LBSPEC.URINE.LBTESTCD.PH" Name="PH" DataType="integer" Length="1" Origin="eDT" def:Label="pH"/>
            <ItemDef OID="LB.LBCAT.Chemistry.LBSPEC.SERUM.LBTESTCD.VITB12" Name="VITB12" DataType="integer" Length="3" Origin="eDT" def:Label="Vitamin B12"/>
            <ItemDef OID="LB.LBCAT.Chemistry.LBSPEC.BLOOD.LBTESTCD.VITB9" Name="VITB9" DataType="float" Length="5" SignificantDigits="1" Origin="eDT" def:Label="Folic Acid; Vitamin B9"/>
            <ItemDef OID="PE.PETESTCD.PE01" Name="PE01" DataType="text" Length="16" Origin="CRF Page 10" def:Label="Appearance/Skin"/>
            <ItemDef OID="PE.PETESTCD.PE02" Name="PE02" DataType="text" Length="6" Origin="CRF Page 10" def:Label="Head/Neck (Including Thyroid)"/>
            <ItemDef OID="PE.PETESTCD.PE03" Name="PE03" DataType="text" Length="13" Origin="CRF Page 10" def:Label="Eyes-Ears-Nose-Throat"/>
            <ItemDef OID="PE.PETESTCD.PE04" Name="PE04" DataType="text" Length="20" Origin="CRF Page 10" def:Label="Cardiovascular"/>
            <ItemDef OID="PE.PETESTCD.PE05" Name="PE05" DataType="text" Length="6" Origin="CRF Page 10" def:Label="Pulmonary"/>
            <ItemDef OID="PE.PETESTCD.PE06" Name="PE06" DataType="text" Length="6" Origin="CRF Page 10" def:Label="Abdomen"/>
            <ItemDef OID="PE.PETESTCD.PE07" Name="PE07" DataType="text" Length="26" Origin="CRF Page 10" def:Label="Neurological"/>
            <ItemDef OID="PE.PETESTCD.PE08" Name="PE08" DataType="text" Length="6" Origin="CRF Page 10" def:Label="Musculoskeletal"/>
            <ItemDef OID="PE.PETESTCD.PE09" Name="PE09" DataType="text" Length="19" Origin="CRF Page 10" def:Label="Other"/>
            <ItemDef OID="QS.QSTESTCD.CGIGLOB" Name="CGIGLOB" DataType="integer" Length="1" Origin="CRF Page 17" def:Label="Global Improvement">
                <CodeListRef CodeListOID="CGIIMP_X"/>
            </ItemDef>
            <ItemDef OID="QS.QSTESTCD.CSDD01" Name="CSDD01" DataType="integer" Length="1" Origin="CRF Page 14" def:Label="Anxiety">
                <CodeListRef CodeListOID="CUE_EXPF_X"/>
            </ItemDef>
            <ItemDef OID="QS.QSTESTCD.CSDD02" Name="CSDD02" DataType="integer" Length="1" Origin="CRF Page 14" def:Label="Sadness">
                <CodeListRef CodeListOID="CUE_EXPF_X"/>
            </ItemDef>
            <ItemDef OID="QS.QSTESTCD.CSDD03" Name="CSDD03" DataType="integer" Length="1" Origin="CRF Page 14" def:Label="Lack of Reactivity to Pleasant Events">
                <CodeListRef CodeListOID="CUE_EXPF_X"/>
            </ItemDef>
            <ItemDef OID="QS.QSTESTCD.CSDD04" Name="CSDD04" DataType="integer" Length="1" Origin="CRF Page 14" def:Label="Irritability">
                <CodeListRef CodeListOID="CUE_EXPF_X"/>
            </ItemDef>
            <ItemDef OID="QS.QSTESTCD.CSDD05" Name="CSDD05" DataType="integer" Length="1" Origin="CRF Page 14" def:Label="Agitation">
                <CodeListRef CodeListOID="CUE_EXPF_X"/>
            </ItemDef>
            <ItemDef OID="QS.QSTESTCD.CSDD06" Name="CSDD06" DataType="integer" Length="1" Origin="CRF Page 14" def:Label="Retardation">
                <CodeListRef CodeListOID="CUE_EXPF_X"/>
            </ItemDef>
            <ItemDef OID="QS.QSTESTCD.CSDD07" Name="CSDD07" DataType="integer" Length="1" Origin="CRF Page 14" def:Label="Multiple Physical Complaints">
                <CodeListRef CodeListOID="CUE_EXPF_X"/>
            </ItemDef>
            <ItemDef OID="QS.QSTESTCD.CSDD08" Name="CSDD08" DataType="integer" Length="1" Origin="CRF Page 14" def:Label="Loss of Interest">
                <CodeListRef CodeListOID="CUE_EXPF_X"/>
            </ItemDef>
            <ItemDef OID="QS.QSTESTCD.CSDD09" Name="CSDD09" DataType="integer" Length="1" Origin="CRF Page 15" def:Label="Appetite Loss">
                <CodeListRef CodeListOID="CUE_EXPF_X"/>
            </ItemDef>
            <ItemDef OID="QS.QSTESTCD.CSDD10" Name="CSDD10" DataType="integer" Length="1" Origin="CRF Page 15" def:Label="Weight Loss">
                <CodeListRef CodeListOID="CUE_EXPF_X"/>
            </ItemDef>
            <ItemDef OID="QS.QSTESTCD.CSDD11" Name="CSDD11" DataType="integer" Length="1" Origin="CRF Page 15" def:Label="Lack of Energy">
                <CodeListRef CodeListOID="CUE_EXPF_X"/>
            </ItemDef>
            <ItemDef OID="QS.QSTESTCD.CSDD12" Name="CSDD12" DataType="integer" Length="1" Origin="CRF Page 15" def:Label="Diurnal Variation of Mood">
                <CodeListRef CodeListOID="CUE_EXPF_X"/>
            </ItemDef>
            <ItemDef OID="QS.QSTESTCD.CSDD13" Name="CSDD13" DataType="integer" Length="1" Origin="CRF Page 15" def:Label="Difficulty Falling Asleep">
                <CodeListRef CodeListOID="CUE_EXPF_X"/>
            </ItemDef>
            <ItemDef OID="QS.QSTESTCD.CSDD14" Name="CSDD14" DataType="integer" Length="1" Origin="CRF Page 15" def:Label="Multiple Awakenings During Sleep">
                <CodeListRef CodeListOID="CUE_EXPF_X"/>
            </ItemDef>
            <ItemDef OID="QS.QSTESTCD.CSDD15" Name="CSDD15" DataType="integer" Length="1" Origin="CRF Page 15" def:Label="Early Morning Awakening">
                <CodeListRef CodeListOID="CUE_EXPF_X"/>
            </ItemDef>
            <ItemDef OID="QS.QSTESTCD.CSDD16" Name="CSDD16" DataType="integer" Length="1" Origin="CRF Page 15" def:Label="Suicide">
                <CodeListRef CodeListOID="CUE_EXPF_X"/>
            </ItemDef>
            <ItemDef OID="QS.QSTESTCD.CSDD17" Name="CSDD17" DataType="integer" Length="1" Origin="CRF Page 15" def:Label="Poor Self-Esteem">
                <CodeListRef CodeListOID="CUE_EXPF_X"/>
            </ItemDef>
            <ItemDef OID="QS.QSTESTCD.CSDD18" Name="CSDD18" DataType="integer" Length="1" Origin="CRF Page 15" def:Label="Pessimism">
                <CodeListRef CodeListOID="CUE_EXPF_X"/>
            </ItemDef>
            <ItemDef OID="QS.QSTESTCD.CSDD19" Name="CSDD19" DataType="integer" Length="1" Origin="CRF Page 15" def:Label="Mood-Congruent Delusions">
                <CodeListRef CodeListOID="CUE_EXPF_X"/>
            </ItemDef>
            <ItemDef OID="QS.QSTESTCD.CSDDTOT" Name="CSDDTOT" DataType="integer" Length="2" Origin="CRF Page 15" def:Label="Total Score"/>
            <ItemDef OID="QS.QSTESTCD.MMSEA1" Name="MMSEA1" DataType="integer" Length="1" Origin="CRF Page 13" def:Label="Orientation time score"/>
            <ItemDef OID="QS.QSTESTCD.MMSEA2" Name="MMSEA2" DataType="integer" Length="1" Origin="CRF Page 13" def:Label="Orientation place score"/>
            <ItemDef OID="QS.QSTESTCD.MMSEB" Name="MMSEB" DataType="integer" Length="1" Origin="CRF Page 13" def:Label="Registration"/>
            <ItemDef OID="QS.QSTESTCD.MMSEC" Name="MMSEC" DataType="integer" Length="1" Origin="CRF Page 13" def:Label="Attention and Calculation"/>
            <ItemDef OID="QS.QSTESTCD.MMSED" Name="MMSED" DataType="integer" Length="1" Origin="CRF Page 13" def:Label="Recall"/>
            <ItemDef OID="QS.QSTESTCD.MMSEET" Name="MMSEET" DataType="integer" Length="1" Origin="CRF Page 13" def:Label="Language"/>
            <ItemDef OID="QS.QSTESTCD.MMSETOT" Name="MMSETOT" DataType="integer" Length="2" Origin="CRF Page 13" def:Label="Total Score"/>
            <ItemDef OID="SC.SCTESTCD.EDLEVEL" Name="EDLEVEL" DataType="text" Length="24" Origin="CRF Page 6" def:Label="Education Level"/>
            <ItemDef OID="SC.SCTESTCD.MARISTAT" Name="MARISTAT" DataType="text" Length="8" Origin="CRF Page 6" def:Label="Marital Status"/>
            <ItemDef OID="SC.SCTESTCD.SUBJINIT" Name="SUBJINIT" DataType="text" Length="3" Origin="CRF Page 3" def:Label="Subject Initials"/>
            <ItemDef OID="IE.IECAT.EXCLUSION.IETESTCD.EXCL01" Name="EXCL01" DataType="text" Length="200" Origin="CRF Page 5" def:Label="Is pregnant, nursing, or planning to become pregnant within 6 months of last study treatment">
                <CodeListRef CodeListOID="NYNA"/>
            </ItemDef>
            <ItemDef OID="IE.IECAT.EXCLUSION.IETESTCD.EXCL02" Name="EXCL02" DataType="text" Length="200" Origin="CRF Page 5" def:Label="Is unable or unwilling to undergo multiple venipunctures">
                <CodeListRef CodeListOID="NYNA"/>
            </ItemDef>
            <ItemDef OID="IE.IECAT.EXCLUSION.IETESTCD.EXCL03" Name="EXCL03" DataType="text" Length="200" Origin="CRF Page 5" def:Label="Is known to have had a substance abuse (drug or alcohol) problem within the previous 3 years">
                <CodeListRef CodeListOID="NYNA"/>
            </ItemDef>
            <ItemDef OID="IE.IECAT.INCLUSION.IETESTCD.INCL01" Name="INCL01" DataType="text" Length="200" Origin="CRF Page 4" def:Label="Is age 18 - 85">
                <CodeListRef CodeListOID="NYNA"/>
            </ItemDef>
            <ItemDef OID="IE.IECAT.INCLUSION.IETESTCD.INCL02" Name="INCL02" DataType="text" Length="200" Origin="CRF Page 4" def:Label="Has Xyz disease of at least 10 weeks duration confirmed by biopsy">
                <CodeListRef CodeListOID="NYNA"/>
            </ItemDef>
            <ItemDef OID="IE.IECAT.INCLUSION.IETESTCD.INCL03" Name="INCL03" DataType="text" Length="200" Origin="CRF Page 4" def:Label="Did not respond to a standard course of medication Abc">
                <CodeListRef CodeListOID="NYNA"/>
            </ItemDef>
            <ItemDef OID="TS.TSPARMCD.ADDON" Name="ADDON" DataType="text" Length="57" Origin="Assigned" def:Label="Added on to Existing Treatments"/>
            <ItemDef OID="TS.TSPARMCD.AGEMAX" Name="AGEMAX" DataType="text" Length="57" Origin="Assigned" def:Label="Planned Maximum Age of Subjects"/>
            <ItemDef OID="TS.TSPARMCD.AGEMIN" Name="AGEMIN" DataType="text" Length="57" Origin="Assigned" def:Label="Planned Minimum Age of Subjects"/>
            <ItemDef OID="TS.TSPARMCD.AGESPAN" Name="AGESPAN" DataType="text" Length="57" Origin="Assigned" def:Label="Age Span"/>
            <ItemDef OID="TS.TSPARMCD.AGEU" Name="AGEU" DataType="text" Length="57" Origin="Assigned" def:Label="Age Unit"/>
            <ItemDef OID="TS.TSPARMCD.DOSE" Name="DOSE" DataType="text" Length="57" Origin="Assigned" def:Label="Dose per Administration"/>
            <ItemDef OID="TS.TSPARMCD.DOSFRQ" Name="DOSFRQ" DataType="text" Length="57" Origin="Assigned" def:Label="Frequency"/>
            <ItemDef OID="TS.TSPARMCD.DOSU" Name="DOSU" DataType="text" Length="57" Origin="Assigned" def:Label="Dose Units"/>
            <ItemDef OID="TS.TSPARMCD.LENGTH" Name="LENGTH" DataType="text" Length="57" Origin="Assigned" def:Label="Trial Length"/>
            <ItemDef OID="TS.TSPARMCD.OBJPRIM" Name="OBJPRIM" DataType="text" Length="57" Origin="Assigned" def:Label="Trial Primary Objective"/>
            <ItemDef OID="TS.TSPARMCD.OBJSEC" Name="OBJSEC" DataType="text" Length="57" Origin="Assigned" def:Label="Trial Secondary Objective"/>
            <ItemDef OID="TS.TSPARMCD.PLANSUB" Name="PLANSUB" DataType="text" Length="57" Origin="Assigned" def:Label="Planned Number of Subjects"/>
            <ItemDef OID="TS.TSPARMCD.RANDOM" Name="RANDOM" DataType="text" Length="57" Origin="Assigned" def:Label="Trial is Randomized"/>
            <ItemDef OID="TS.TSPARMCD.ROUTE" Name="ROUTE" DataType="text" Length="57" Origin="Assigned" def:Label="Route of Administration"/>
            <ItemDef OID="TS.TSPARMCD.SEXPOP" Name="SEXPOP" DataType="text" Length="57" Origin="Assigned" def:Label="Sex of Participants"/>
            <ItemDef OID="TS.TSPARMCD.SPONSOR" Name="SPONSOR" DataType="text" Length="57" Origin="Assigned" def:Label="Sponsoring Organization"/>
            <ItemDef OID="TS.TSPARMCD.TBLIND" Name="TBLIND" DataType="text" Length="57" Origin="Assigned" def:Label="Trial Blinding Schema"/>
            <ItemDef OID="TS.TSPARMCD.TCNTRL" Name="TCNTRL" DataType="text" Length="57" Origin="Assigned" def:Label="Control Type"/>
            <ItemDef OID="TS.TSPARMCD.TINDTP" Name="TINDTP" DataType="text" Length="57" Origin="Assigned" def:Label="Trial Indication Type"/>
            <ItemDef OID="TS.TSPARMCD.TITLE" Name="TITLE" DataType="text" Length="57" Origin="Assigned" def:Label="Trial Title"/>
            <ItemDef OID="TS.TSPARMCD.TPHASE" Name="TPHASE" DataType="text" Length="57" Origin="Assigned" def:Label="Trial Phase Classification"/>
            <ItemDef OID="TS.TSPARMCD.TRT" Name="TRT" DataType="text" Length="57" Origin="Assigned" def:Label="Reported Name of Test Product"/>
            <ItemDef OID="TS.TSPARMCD.TTYPE" Name="TTYPE" DataType="text" Length="57" Origin="Assigned" def:Label="Trial Title"/>
            <ItemDef OID="VS.VSTESTCD.DIABP" Name="DIABP" DataType="integer" Length="2" Origin="CRF Page 11" def:Label="Diastolic Blood Pressure"/>
            <ItemDef OID="VS.VSTESTCD.FRMSIZE" Name="FRMSIZE" DataType="text" Length="6" Origin="CRF Page 11" def:Label="Body Frame Size">
                <CodeListRef CodeListOID="SIZE"/>
            </ItemDef>
            <ItemDef OID="VS.VSTESTCD.HEIGHT" Name="HEIGHT" DataType="float" Length="5" SignificantDigits="1" Origin="CRF Page 11" def:Label="Height"/>
            <ItemDef OID="VS.VSTESTCD.PULSE" Name="PULSE" DataType="integer" Length="2" Origin="CRF Page 11" def:Label="Pulse Rate"/>
            <ItemDef OID="VS.VSTESTCD.SYSBP" Name="SYSBP" DataType="integer" Length="3" Origin="CRF Page 11" def:Label="Systolic Blood Pressure"/>
            <ItemDef OID="VS.VSTESTCD.WEIGHT" Name="WEIGHT" DataType="float" Length="4" SignificantDigits="1" Origin="CRF Page 11" def:Label="Weight"/>
            <ItemDef OID="LB.LBCAT.Chemistry" Name="Chemistry" DataType="text" Length="9" Origin="eDT" def:Label="Chemistry">
                <def:ValueListRef ValueListOID="ValueList.LB.LBCAT.Chemistry.LBSPEC"/>
            </ItemDef>
            <ItemDef OID="LB.LBCAT.Hematology" Name="Hematology" DataType="text" Length="10" Origin="eDT" def:Label="Hematology">
                <def:ValueListRef ValueListOID="ValueList.LB.LBCAT.Hematology.LBSPEC"/>
            </ItemDef>
            <ItemDef OID="LB.LBCAT.Urinalysis" Name="Urinalysis" DataType="text" Length="10" Origin="eDT" def:Label="Urinalysis">
                <def:ValueListRef ValueListOID="ValueList.LB.LBCAT.Urinalysis.LBSPEC"/>
            </ItemDef>
            <ItemDef OID="IE.IECAT.EXCLUSION" Name="EXCLUSION" DataType="text" Length="9" Origin="CRF Page 5" def:Label="EXCLUSION">
                <def:ValueListRef ValueListOID="ValueList.IE.IECAT.EXCLUSION.IETESTCD"/>
            </ItemDef>
            <ItemDef OID="IE.IECAT.INCLUSION" Name="INCLUSION" DataType="text" Length="9" Origin="CRF Page 4" def:Label="INCLUSION">
                <def:ValueListRef ValueListOID="ValueList.IE.IECAT.INCLUSION.IETESTCD"/>
            </ItemDef>
            <ItemDef OID="QS.QSCAT.CG" Name="CGI-I" DataType="text" Length="50" Origin="QSMM-CRF Page 13, ;QSCS-CRF Page 14, 15, ;QSCG-CRF Page 17;" def:Label="Clinical Global Impressions">
                <def:ValueListRef ValueListOID="ValueList.QS.QSCAT.CG.QSTESTCD"/>
            </ItemDef>
            <ItemDef OID="QS.QSCAT.CS" Name="CSDD" DataType="text" Length="50" Origin="QSMM-CRF Page 13, ;QSCS-CRF Page 14, 15, ;QSCG-CRF Page 17;" def:Label="Cornell Scale for Depression in Dementia">
                <def:ValueListRef ValueListOID="ValueList.QS.QSCAT.CS.QSTESTCD"/>
            </ItemDef>
            <ItemDef OID="QS.QSCAT.MM" Name="MMSE" DataType="text" Length="50" Origin="QSMM-CRF Page 13, ;QSCS-CRF Page 14, 15, ;QSCG-CRF Page 17;" def:Label="Mini Mental State Examination">
                <def:ValueListRef ValueListOID="ValueList.QS.QSCAT.MM.QSTESTCD"/>
            </ItemDef>
            <ItemDef OID="LB.LBCAT.Chemistry.LBSPEC.BLOOD" Name="BLOOD" DataType="text" Length="5" Origin="eDT" def:Label="BLOOD">
                <def:ValueListRef ValueListOID="ValueList.LB.LBCAT.Chemistry.LBSPEC.BLOOD.LBTESTCD"/>
            </ItemDef>
            <ItemDef OID="LB.LBCAT.Chemistry.LBSPEC.SERUM" Name="SERUM" DataType="text" Length="5" Origin="eDT" def:Label="SERUM">
                <def:ValueListRef ValueListOID="ValueList.LB.LBCAT.Chemistry.LBSPEC.SERUM.LBTESTCD"/>
            </ItemDef>
            <ItemDef OID="LB.LBCAT.Hematology.LBSPEC.BLOOD" Name="BLOOD" DataType="text" Length="5" Origin="eDT" def:Label="BLOOD">
                <def:ValueListRef ValueListOID="ValueList.LB.LBCAT.Hematology.LBSPEC.BLOOD.LBTESTCD"/>
            </ItemDef>
            <ItemDef OID="LB.LBCAT.Urinalysis.LBSPEC.URINE" Name="URINE" DataType="text" Length="5" Origin="eDT" def:Label="URINE">
                <def:ValueListRef ValueListOID="ValueList.LB.LBCAT.Urinalysis.LBSPEC.URINE.LBMETHOD"/>
            </ItemDef>
            <ItemDef OID="LB.LBCAT.Urinalysis.LBSPEC.URINE.LBMETHOD.DIPSTICK" Name="DIPSTICK" DataType="text" Length="8" Origin="eDT" def:Label="DIPSTICK">
                <def:ValueListRef ValueListOID="ValueList.LB.LBCAT.Urinalysis.LBSPEC.URINE.LBMETHOD.DIPSTICK.LBTESTCD"/>
            </ItemDef>
            <ItemDef OID="LB.LBCAT.Urinalysis.LBSPEC.URINE.LBMETHOD.QUANT" Name="QUANT" DataType="text" Length="5" Origin="eDT" def:Label="QUANT">
                <def:ValueListRef ValueListOID="ValueList.LB.LBCAT.Urinalysis.LBSPEC.URINE.LBMETHOD.QUANT.LBTESTCD"/>
            </ItemDef>
            <ItemDef OID="LB.LBCAT.Urinalysis.LBSPEC.URINE.LBMETHOD.NOMETHOD" Name="(no method)" DataType="text" Length="5" Origin="eDT" def:Label="NO METHOD">
                <def:ValueListRef ValueListOID="ValueList.LB.LBCAT.Urinalysis.LBSPEC.URINE.LBMETHOD.NOMETHOD.LBTESTCD"/>
            </ItemDef>
            <CodeList OID="ACN" Name="ACN" DataType="text">
                <CodeListItem CodedValue="DOSE NOT CHANGED">
                    <Decode>
                        <TranslatedText>DOSE NOT CHANGED</TranslatedText>
                    </Decode>
                </CodeListItem>
                <CodeListItem CodedValue="DOSE REDUCED">
                    <Decode>
                        <TranslatedText>DOSE REDUCED</TranslatedText>
                    </Decode>
                </CodeListItem>
                <CodeListItem CodedValue="DRUG INTERRUPTED">
                    <Decode>
                        <TranslatedText>DRUG INTERRUPTED</TranslatedText>
                    </Decode>
                </CodeListItem>
                <CodeListItem CodedValue="DRUG WITHDRAWN">
                    <Decode>
                        <TranslatedText>DRUG WITHDRAWN</TranslatedText>
                    </Decode>
                </CodeListItem>
            </CodeList>
            <CodeList OID="AEENRF" Name="AEENRF" DataType="text">
                <CodeListItem CodedValue="AFTER">
                    <Decode>
                        <TranslatedText>AFTER</TranslatedText>
                    </Decode>
                </CodeListItem>
            </CodeList>
            <CodeList OID="AEREL" Name="AEREL" DataType="text">
                <CodeListItem CodedValue="NOT RELATED">
                    <Decode>
                        <TranslatedText>NOT RELATED</TranslatedText>
                    </Decode>
                </CodeListItem>
                <CodeListItem CodedValue="POSSIBLY RELATED">
                    <Decode>
                        <TranslatedText>POSSIBLY RELATED</TranslatedText>
                    </Decode>
                </CodeListItem>
                <CodeListItem CodedValue="RELATED">
                    <Decode>
                        <TranslatedText>RELATED</TranslatedText>
                    </Decode>
                </CodeListItem>
            </CodeList>
            <CodeList OID="AESEV" Name="AESEV" DataType="text">
                <CodeListItem CodedValue="MILD" def:Rank="1">
                    <Decode>
                        <TranslatedText>MILD</TranslatedText>
                    </Decode>
                </CodeListItem>
                <CodeListItem CodedValue="MODERATE" def:Rank="2">
                    <Decode>
                        <TranslatedText>MODERATE</TranslatedText>
                    </Decode>
                </CodeListItem>
                <CodeListItem CodedValue="SEVERE" def:Rank="3">
                    <Decode>
                        <TranslatedText>SEVERE</TranslatedText>
                    </Decode>
                </CodeListItem>
            </CodeList>
            <CodeList OID="ARM" Name="ARM" DataType="text">
                <CodeListItem CodedValue="Miracle Drug 10 mg">
                    <Decode>
                        <TranslatedText>Miracle Drug 10 mg</TranslatedText>
                    </Decode>
                </CodeListItem>
                <CodeListItem CodedValue="Miracle Drug 20 mg">
                    <Decode>
                        <TranslatedText>Miracle Drug 20 mg</TranslatedText>
                    </Decode>
                </CodeListItem>
                <CodeListItem CodedValue="Placebo">
                    <Decode>
                        <TranslatedText>Placebo</TranslatedText>
                    </Decode>
                </CodeListItem>
                <CodeListItem CodedValue="Screen Failure">
                    <Decode>
                        <TranslatedText>Screen Failure</TranslatedText>
                    </Decode>
                </CodeListItem>
            </CodeList>
            <CodeList OID="ARMCD" Name="ARMCD" DataType="text">
                <CodeListItem CodedValue="PLACEBO">
                    <Decode>
                        <TranslatedText xml:lang="en">Placebo</TranslatedText>
                    </Decode>
                </CodeListItem>
                <CodeListItem CodedValue="SCRNFAIL">
                    <Decode>
                        <TranslatedText xml:lang="en">Screen Failure</TranslatedText>
                    </Decode>
                </CodeListItem>
                <CodeListItem CodedValue="WONDER10">
                    <Decode>
                        <TranslatedText xml:lang="en">Miracle Drug 10 mg</TranslatedText>
                    </Decode>
                </CodeListItem>
                <CodeListItem CodedValue="WONDER20">
                    <Decode>
                        <TranslatedText xml:lang="en">Miracle Drug 20 mg</TranslatedText>
                    </Decode>
                </CodeListItem>
            </CodeList>
            <CodeList OID="CGIIMP_X" Name="CGIIMP_X" DataType="integer">
                <CodeListItem CodedValue="1">
                    <Decode>
                        <TranslatedText xml:lang="en">Very much improved</TranslatedText>
                    </Decode>
                </CodeListItem>
                <CodeListItem CodedValue="2">
                    <Decode>
                        <TranslatedText xml:lang="en">Much Improved</TranslatedText>
                    </Decode>
                </CodeListItem>
                <CodeListItem CodedValue="3">
                    <Decode>
                        <TranslatedText xml:lang="en">Minimally Improved</TranslatedText>
                    </Decode>
                </CodeListItem>
                <CodeListItem CodedValue="4">
                    <Decode>
                        <TranslatedText xml:lang="en">No change</TranslatedText>
                    </Decode>
                </CodeListItem>
                <CodeListItem CodedValue="5">
                    <Decode>
                        <TranslatedText xml:lang="en">Minimally worse</TranslatedText>
                    </Decode>
                </CodeListItem>
                <CodeListItem CodedValue="6">
                    <Decode>
                        <TranslatedText xml:lang="en">Much worse</TranslatedText>
                    </Decode>
                </CodeListItem>
                <CodeListItem CodedValue="7">
                    <Decode>
                        <TranslatedText xml:lang="en">Very much worse</TranslatedText>
                    </Decode>
                </CodeListItem>
            </CodeList>
            <CodeList OID="CMCAT" Name="CMCAT" DataType="text">
                <CodeListItem CodedValue="CONCOMITANT MEDICATIONS">
                    <Decode>
                        <TranslatedText>CONCOMITANT MEDICATIONS</TranslatedText>
                    </Decode>
                </CodeListItem>
                <CodeListItem CodedValue="PSYCHOTROPHIC DRUG TREATMENT HISTORY">
                    <Decode>
                        <TranslatedText>PSYCHOTROPHIC DRUG TREATMENT HISTORY</TranslatedText>
                    </Decode>
                </CodeListItem>
            </CodeList>
            <CodeList OID="CMENRF" Name="CMENRF" DataType="text">
                <CodeListItem CodedValue="AFTER">
                    <Decode>
                        <TranslatedText>AFTER</TranslatedText>
                    </Decode>
                </CodeListItem>
            </CodeList>
            <CodeList OID="CMUNIT" Name="CMUNIT" DataType="text">
                <CodeListItem CodedValue="mg">
                    <Decode>
                        <TranslatedText>mg</TranslatedText>
                    </Decode>
                </CodeListItem>
                <CodeListItem CodedValue="ug">
                    <Decode>
                        <TranslatedText>ug</TranslatedText>
                    </Decode>
                </CodeListItem>
                <CodeListItem CodedValue="g">
                    <Decode>
                        <TranslatedText>g</TranslatedText>
                    </Decode>
                </CodeListItem>
                <CodeListItem CodedValue="mL">
                    <Decode>
                        <TranslatedText>mL</TranslatedText>
                    </Decode>
                </CodeListItem>
                <CodeListItem CodedValue="ug/kg">
                    <Decode>
                        <TranslatedText>ug/kg</TranslatedText>
                    </Decode>
                </CodeListItem>
                <CodeListItem CodedValue="mg/kg">
                    <Decode>
                        <TranslatedText>mg/kg</TranslatedText>
                    </Decode>
                </CodeListItem>
                <CodeListItem CodedValue="mL/kg">
                    <Decode>
                        <TranslatedText>mL/kg</TranslatedText>
                    </Decode>
                </CodeListItem>
                <CodeListItem CodedValue="mL/hr">
                    <Decode>
                        <TranslatedText>mL/hr</TranslatedText>
                    </Decode>
                </CodeListItem>
                <CodeListItem CodedValue="IU">
                    <Decode>
                        <TranslatedText>IU</TranslatedText>
                    </Decode>
                </CodeListItem>
                <CodeListItem CodedValue="TABLET">
                    <Decode>
                        <TranslatedText>TABLET</TranslatedText>
                    </Decode>
                </CodeListItem>
                <CodeListItem CodedValue="CAPSULE">
                    <Decode>
                        <TranslatedText>CAPSULE</TranslatedText>
                    </Decode>
                </CodeListItem>
                <CodeListItem CodedValue="VIAL">
                    <Decode>
                        <TranslatedText>VIAL</TranslatedText>
                    </Decode>
                </CodeListItem>
                <CodeListItem CodedValue="Other">
                    <Decode>
                        <TranslatedText>Other</TranslatedText>
                    </Decode>
                </CodeListItem>
            </CodeList>
            <CodeList OID="CUE_EXPF_X" Name="CUE_EXPF_X" DataType="integer">
                <CodeListItem CodedValue="0">
                    <Decode>
                        <TranslatedText xml:lang="en">Absent</TranslatedText>
                    </Decode>
                </CodeListItem>
                <CodeListItem CodedValue="1">
                    <Decode>
                        <TranslatedText xml:lang="en">Mild or Intermittent</TranslatedText>
                    </Decode>
                </CodeListItem>
                <CodeListItem CodedValue="2">
                    <Decode>
                        <TranslatedText xml:lang="en">Severe</TranslatedText>
                    </Decode>
                </CodeListItem>
            </CodeList>
            <CodeList OID="DDISCNTF" Name="DDISCNTF" DataType="text">
                <CodeListItem CodedValue="ONGOING">
                    <Decode>
                        <TranslatedText>Ongoing</TranslatedText>
                    </Decode>
                </CodeListItem>
                <CodeListItem CodedValue="ADVERSE EVENT">
                    <Decode>
                        <TranslatedText>Adverse Event</TranslatedText>
                    </Decode>
                </CodeListItem>
                <CodeListItem CodedValue="INSUFFICIENT RESPONSE">
                    <Decode>
                        <TranslatedText>Insufficient Response</TranslatedText>
                    </Decode>
                </CodeListItem>
                <CodeListItem CodedValue="SATISFACTORY RESPONSE">
                    <Decode>
                        <TranslatedText>Satisfactory Response</TranslatedText>
                    </Decode>
                </CodeListItem>
                <CodeListItem CodedValue="OTHER">
                    <Decode>
                        <TranslatedText>Other</TranslatedText>
                    </Decode>
                </CodeListItem>
            </CodeList>
            <CodeList OID="DSCAT" Name="DSCAT" DataType="text">
                <CodeListItem CodedValue="DISPOSITION EVENT">
                    <Decode>
                        <TranslatedText>DISPOSITION EVENT</TranslatedText>
                    </Decode>
                </CodeListItem>
                <CodeListItem CodedValue="PROTOCOL MILESTONE">
                    <Decode>
                        <TranslatedText>PROTOCOL MILESTONE</TranslatedText>
                    </Decode>
                </CodeListItem>
            </CodeList>
            <CodeList OID="EPOCH" Name="EPOCH" DataType="text">
                <CodeListItem CodedValue="SCREENING">
                    <Decode>
                        <TranslatedText>SCREENING</TranslatedText>
                    </Decode>
                </CodeListItem>
                <CodeListItem CodedValue="TREATMENT">
                    <Decode>
                        <TranslatedText>TREATMENT</TranslatedText>
                    </Decode>
                </CodeListItem>
            </CodeList>
            <CodeList OID="ETHNIC" Name="ETHNIC" DataType="text">
                <CodeListItem CodedValue="HISPANIC OR LATINO">
                    <Decode>
                        <TranslatedText>HISPANIC OR LATINO</TranslatedText>
                    </Decode>
                </CodeListItem>
                <CodeListItem CodedValue="NOT HISPANIC OR LATINO">
                    <Decode>
                        <TranslatedText>NOT HISPANIC OR LATINO</TranslatedText>
                    </Decode>
                </CodeListItem>
            </CodeList>
            <CodeList OID="EXTRT" Name="EXTRT" DataType="text">
                <CodeListItem CodedValue="Miracle Drug">
                    <Decode>
                        <TranslatedText>Miracle Drug</TranslatedText>
                    </Decode>
                </CodeListItem>
                <CodeListItem CodedValue="Placebo">
                    <Decode>
                        <TranslatedText>Placebo</TranslatedText>
                    </Decode>
                </CodeListItem>
            </CodeList>
            <CodeList OID="FREQ" Name="FREQ" DataType="text">
                <CodeListItem CodedValue="Q24H">
                    <Decode>
                        <TranslatedText>Q24H</TranslatedText>
                    </Decode>
                </CodeListItem>
                <CodeListItem CodedValue="BID">
                    <Decode>
                        <TranslatedText>BID</TranslatedText>
                    </Decode>
                </CodeListItem>
                <CodeListItem CodedValue="TID">
                    <Decode>
                        <TranslatedText>TID</TranslatedText>
                    </Decode>
                </CodeListItem>
                <CodeListItem CodedValue="QID">
                    <Decode>
                        <TranslatedText>QID</TranslatedText>
                    </Decode>
                </CodeListItem>
                <CodeListItem CodedValue="QOD">
                    <Decode>
                        <TranslatedText>QOD</TranslatedText>
                    </Decode>
                </CodeListItem>
                <CodeListItem CodedValue="QS">
                    <Decode>
                        <TranslatedText>QS</TranslatedText>
                    </Decode>
                </CodeListItem>
                <CodeListItem CodedValue="ONCE">
                    <Decode>
                        <TranslatedText>ONCE</TranslatedText>
                    </Decode>
                </CodeListItem>
                <CodeListItem CodedValue="PRN">
                    <Decode>
                        <TranslatedText>PRN</TranslatedText>
                    </Decode>
                </CodeListItem>
                <CodeListItem CodedValue="OTHER">
                    <Decode>
                        <TranslatedText>OTHER</TranslatedText>
                    </Decode>
                </CodeListItem>
            </CodeList>
            <CodeList OID="FRM" Name="FRM" DataType="text">
                <CodeListItem CodedValue="TABLET">
                    <Decode>
                        <TranslatedText>TABLET</TranslatedText>
                    </Decode>
                </CodeListItem>
            </CodeList>
            <CodeList OID="METHOD" Name="METHOD" DataType="text">
                <CodeListItem CodedValue="DIPSTICK">
                    <Decode>
                        <TranslatedText>DIPSTICK</TranslatedText>
                    </Decode>
                </CodeListItem>
                <CodeListItem CodedValue="QUANT">
                    <Decode>
                        <TranslatedText>QUANT</TranslatedText>
                    </Decode>
                </CodeListItem>
            </CodeList>
            <CodeList OID="MHBODSYS" Name="MHBODSYS" DataType="text">
                <CodeListItem CodedValue="Endocrine-Metabolic">
                    <Decode>
                        <TranslatedText>Endocrine-Metabolic</TranslatedText>
                    </Decode>
                </CodeListItem>
                <CodeListItem CodedValue="Eyes-Ears-Nose-Throat">
                    <Decode>
                        <TranslatedText>Eyes-Ears-Nose-Throat</TranslatedText>
                    </Decode>
                </CodeListItem>
                <CodeListItem CodedValue="Genitourinary">
                    <Decode>
                        <TranslatedText>Genitourinary</TranslatedText>
                    </Decode>
                </CodeListItem>
                <CodeListItem CodedValue="Musculoskeletal">
                    <Decode>
                        <TranslatedText>Musculoskeletal</TranslatedText>
                    </Decode>
                </CodeListItem>
                <CodeListItem CodedValue="Neurological">
                    <Decode>
                        <TranslatedText>Neurological</TranslatedText>
                    </Decode>
                </CodeListItem>
            </CodeList>
            <CodeList OID="MHCAT" Name="MHCAT" DataType="text">
                <CodeListItem CodedValue="MEDICAL AND SURGICAL HISTORY">
                    <Decode>
                        <TranslatedText>MEDICAL AND SURGICAL HISTORY</TranslatedText>
                    </Decode>
                </CodeListItem>
                <CodeListItem CodedValue="PSYCHIATRIC HISTORY">
                    <Decode>
                        <TranslatedText>PSYCHIATRIC HISTORY</TranslatedText>
                    </Decode>
                </CodeListItem>
            </CodeList>
            <CodeList OID="MHENRF" Name="MHENRF" DataType="text">
                <CodeListItem CodedValue="BEFORE">
                    <Decode>
                        <TranslatedText>BEFORE</TranslatedText>
                    </Decode>
                </CodeListItem>
                <CodeListItem CodedValue="DURING/AFTER">
                    <Decode>
                        <TranslatedText>DURING/AFTER</TranslatedText>
                    </Decode>
                </CodeListItem>
            </CodeList>
            <CodeList OID="NABCLIN" Name="NABCLIN" DataType="text">
                <CodeListItem CodedValue="NORMAL">
                    <Decode>
                        <TranslatedText>NORMAL</TranslatedText>
                    </Decode>
                </CodeListItem>
                <CodeListItem CodedValue="ABNORMAL">
                    <Decode>
                        <TranslatedText>ABNORMAL</TranslatedText>
                    </Decode>
                </CodeListItem>
            </CodeList>
            <CodeList OID="NCOMPLT" Name="NCOMPLT" DataType="text">
                <CodeListItem CodedValue="COMPLETED">
                    <Decode>
                        <TranslatedText>COMPLETED</TranslatedText>
                    </Decode>
                </CodeListItem>
                <CodeListItem CodedValue="SCREEN FAILURE">
                    <Decode>
                        <TranslatedText>SCREEN FAILURE</TranslatedText>
                    </Decode>
                </CodeListItem>
                <CodeListItem CodedValue="LACK OF EFFICACY">
                    <Decode>
                        <TranslatedText>LACK OF EFFICACY</TranslatedText>
                    </Decode>
                </CodeListItem>
                <CodeListItem CodedValue="ADVERSE EVENT">
                    <Decode>
                        <TranslatedText>ADVERSE EVENT</TranslatedText>
                    </Decode>
                </CodeListItem>
                <CodeListItem CodedValue="PROTOCOL VIOLATION">
                    <Decode>
                        <TranslatedText>PROTOCOL VIOLATION</TranslatedText>
                    </Decode>
                </CodeListItem>
                <CodeListItem CodedValue="WITHDRAWAL BY SUBJECT">
                    <Decode>
                        <TranslatedText>WITHDRAWAL BY SUBJECT</TranslatedText>
                    </Decode>
                </CodeListItem>
                <CodeListItem CodedValue="LOST TO FOLLOW-UP">
                    <Decode>
                        <TranslatedText>LOST TO FOLLOW-UP</TranslatedText>
                    </Decode>
                </CodeListItem>
                <CodeListItem CodedValue="PHYSICIAN DECISION">
                    <Decode>
                        <TranslatedText>PHYSICIAN DECISION</TranslatedText>
                    </Decode>
                </CodeListItem>
                <CodeListItem CodedValue="INFORMED CONSENT">
                    <Decode>
                        <TranslatedText>INFORMED CONSENT</TranslatedText>
                    </Decode>
                </CodeListItem>
                <CodeListItem CodedValue="RANDOMIZED">
                    <Decode>
                        <TranslatedText>RANDOMIZED</TranslatedText>
                    </Decode>
                </CodeListItem>
            </CodeList>
            <CodeList OID="NRIND" Name="NRIND" DataType="text">
                <CodeListItem CodedValue="ABNORMAL">
                    <Decode>
                        <TranslatedText>ABNORMAL</TranslatedText>
                    </Decode>
                </CodeListItem>
                <CodeListItem CodedValue="HIGH">
                    <Decode>
                        <TranslatedText>HIGH</TranslatedText>
                    </Decode>
                </CodeListItem>
                <CodeListItem CodedValue="LOW">
                    <Decode>
                        <TranslatedText>LOW</TranslatedText>
                    </Decode>
                </CodeListItem>
                <CodeListItem CodedValue="NORMAL">
                    <Decode>
                        <TranslatedText>NORMAL</TranslatedText>
                    </Decode>
                </CodeListItem>
            </CodeList>
            <CodeList OID="NYNA" Name="NYNA" DataType="text">
                <CodeListItem CodedValue="N">
                    <Decode>
                        <TranslatedText xml:lang="en">NO</TranslatedText>
                    </Decode>
                </CodeListItem>
                <CodeListItem CodedValue="NA">
                    <Decode>
                        <TranslatedText xml:lang="en">NOT APPLICABLE</TranslatedText>
                    </Decode>
                </CodeListItem>
                <CodeListItem CodedValue="Y">
                    <Decode>
                        <TranslatedText xml:lang="en">YES</TranslatedText>
                    </Decode>
                </CodeListItem>
            </CodeList>
            <CodeList OID="NY" Name="NY" DataType="text">
                <CodeListItem CodedValue="N">
                    <Decode>
                        <TranslatedText xml:lang="en">NO</TranslatedText>
                    </Decode>
                </CodeListItem>
                <CodeListItem CodedValue="U">
                    <Decode>
                        <TranslatedText xml:lang="en">UNKNOWN</TranslatedText>
                    </Decode>
                </CodeListItem>
                <CodeListItem CodedValue="Y">
                    <Decode>
                        <TranslatedText xml:lang="en">YES</TranslatedText>
                    </Decode>
                </CodeListItem>
            </CodeList>
            <CodeList OID="PSRESPF" Name="PSRESPF" DataType="text">
                <CodeListItem CodedValue="NO CHANGE" def:Rank="1">
                    <Decode>
                        <TranslatedText>No Change</TranslatedText>
                    </Decode>
                </CodeListItem>
                <CodeListItem CodedValue="POOR" def:Rank="2">
                    <Decode>
                        <TranslatedText>Poor</TranslatedText>
                    </Decode>
                </CodeListItem>
                <CodeListItem CodedValue="GOOD" def:Rank="3">
                    <Decode>
                        <TranslatedText>Good</TranslatedText>
                    </Decode>
                </CodeListItem>
            </CodeList>
            <CodeList OID="RACE" Name="RACE" DataType="text">
                <CodeListItem CodedValue="WHITE">
                    <Decode>
                        <TranslatedText>WHITE</TranslatedText>
                    </Decode>
                </CodeListItem>
                <CodeListItem CodedValue="AMERICAN INDIAN OR ALASKA NATIVE">
                    <Decode>
                        <TranslatedText>AMERICAN INDIAN OR ALASKA NATIVE</TranslatedText>
                    </Decode>
                </CodeListItem>
                <CodeListItem CodedValue="BLACK OR AFRICAN AMERICAN">
                    <Decode>
                        <TranslatedText>BLACK OR AFRICAN AMERICAN</TranslatedText>
                    </Decode>
                </CodeListItem>
                <CodeListItem CodedValue="ASIAN">
                    <Decode>
                        <TranslatedText>ASIAN</TranslatedText>
                    </Decode>
                </CodeListItem>
                <CodeListItem CodedValue="NATIVE HAWAIIAN OR OTHER PACIFIC ISLANDER">
                    <Decode>
                        <TranslatedText>NATIVE HAWAIIAN OR OTHER PACIFIC ISLANDER</TranslatedText>
                    </Decode>
                </CodeListItem>
                <CodeListItem CodedValue="OTHER">
                    <Decode>
                        <TranslatedText>OTHER</TranslatedText>
                    </Decode>
                </CodeListItem>
                <CodeListItem CodedValue="MULTIPLE">
                    <Decode>
                        <TranslatedText>MULTIPLE</TranslatedText>
                    </Decode>
                </CodeListItem>
            </CodeList>
            <CodeList OID="ROUTE" Name="ROUTE" DataType="text">
                <CodeListItem CodedValue="ORAL">
                    <Decode>
                        <TranslatedText>ORAL</TranslatedText>
                    </Decode>
                </CodeListItem>
                <CodeListItem CodedValue="SUBCUTANEOUS">
                    <Decode>
                        <TranslatedText>SUBCUTANEOUS</TranslatedText>
                    </Decode>
                </CodeListItem>
                <CodeListItem CodedValue="INTRAMUSCULAR">
                    <Decode>
                        <TranslatedText>INTRAMUSCULAR</TranslatedText>
                    </Decode>
                </CodeListItem>
                <CodeListItem CodedValue="INTRAVENOUS">
                    <Decode>
                        <TranslatedText>INTRAVENOUS</TranslatedText>
                    </Decode>
                </CodeListItem>
                <CodeListItem CodedValue="RECTAL">
                    <Decode>
                        <TranslatedText>RECTAL</TranslatedText>
                    </Decode>
                </CodeListItem>
                <CodeListItem CodedValue="TOPICAL">
                    <Decode>
                        <TranslatedText>TOPICAL</TranslatedText>
                    </Decode>
                </CodeListItem>
                <CodeListItem CodedValue="NASAL">
                    <Decode>
                        <TranslatedText>NASAL</TranslatedText>
                    </Decode>
                </CodeListItem>
                <CodeListItem CodedValue="INTRASINAL">
                    <Decode>
                        <TranslatedText>INTRASINAL</TranslatedText>
                    </Decode>
                </CodeListItem>
                <CodeListItem CodedValue="OTHER">
                    <Decode>
                        <TranslatedText>OTHER</TranslatedText>
                    </Decode>
                </CodeListItem>
            </CodeList>
            <CodeList OID="RoleCodeList" Name="RoleCodeList" DataType="text">
                <CodeListItem CodedValue="GROUPING QUALIFIER">
                    <Decode>
                        <TranslatedText>GROUPING QUALIFIER</TranslatedText>
                    </Decode>
                </CodeListItem>
                <CodeListItem CodedValue="IDENTIFIER">
                    <Decode>
                        <TranslatedText>IDENTIFIER</TranslatedText>
                    </Decode>
                </CodeListItem>
                <CodeListItem CodedValue="RECORD QUALIFIER">
                    <Decode>
                        <TranslatedText>RECORD QUALIFIER</TranslatedText>
                    </Decode>
                </CodeListItem>
                <CodeListItem CodedValue="RESULT">
                    <Decode>
                        <TranslatedText>RESULT</TranslatedText>
                    </Decode>
                </CodeListItem>
                <CodeListItem CodedValue="RESULT QUALIFIER">
                    <Decode>
                        <TranslatedText>RESULT QUALIFIER</TranslatedText>
                    </Decode>
                </CodeListItem>
                <CodeListItem CodedValue="RULE">
                    <Decode>
                        <TranslatedText>RULE</TranslatedText>
                    </Decode>
                </CodeListItem>
                <CodeListItem CodedValue="SYNONYM QUALIFIER">
                    <Decode>
                        <TranslatedText>SYNONYM QUALIFIER</TranslatedText>
                    </Decode>
                </CodeListItem>
                <CodeListItem CodedValue="TIMING">
                    <Decode>
                        <TranslatedText>TIMING</TranslatedText>
                    </Decode>
                </CodeListItem>
                <CodeListItem CodedValue="TOPIC">
                    <Decode>
                        <TranslatedText>TOPIC</TranslatedText>
                    </Decode>
                </CodeListItem>
                <CodeListItem CodedValue="VARIABLE QUALIFIER">
                    <Decode>
                        <TranslatedText>VARIABLE QUALIFIER</TranslatedText>
                    </Decode>
                </CodeListItem>
            </CodeList>
            <CodeList OID="SEX" Name="SEX" DataType="text">
                <CodeListItem CodedValue="F">
                    <Decode>
                        <TranslatedText xml:lang="en">FEMALE</TranslatedText>
                    </Decode>
                </CodeListItem>
                <CodeListItem CodedValue="M">
                    <Decode>
                        <TranslatedText xml:lang="en">MALE</TranslatedText>
                    </Decode>
                </CodeListItem>
                <CodeListItem CodedValue="U">
                    <Decode>
                        <TranslatedText xml:lang="en">UNKNOWN</TranslatedText>
                    </Decode>
                </CodeListItem>
            </CodeList>
            <CodeList OID="SIZE" Name="SIZE" DataType="text">
                <CodeListItem CodedValue="SMALL">
                    <Decode>
                        <TranslatedText>SMALL</TranslatedText>
                    </Decode>
                </CodeListItem>
                <CodeListItem CodedValue="MEDIUM">
                    <Decode>
                        <TranslatedText>MEDIUM</TranslatedText>
                    </Decode>
                </CodeListItem>
                <CodeListItem CodedValue="LARGE">
                    <Decode>
                        <TranslatedText>LARGE</TranslatedText>
                    </Decode>
                </CodeListItem>
            </CodeList>
            <CodeList OID="SPECTYPE" Name="SPECTYPE" DataType="text">
                <CodeListItem CodedValue="BLOOD">
                    <Decode>
                        <TranslatedText>BLOOD</TranslatedText>
                    </Decode>
                </CodeListItem>
                <CodeListItem CodedValue="SERUM">
                    <Decode>
                        <TranslatedText>SERUM</TranslatedText>
                    </Decode>
                </CodeListItem>
                <CodeListItem CodedValue="URINE">
                    <Decode>
                        <TranslatedText>URINE</TranslatedText>
                    </Decode>
                </CodeListItem>
            </CodeList>
            <CodeList OID="TREASFF" Name="TREASFF" DataType="text">
                <CodeListItem CodedValue="COMPLETED">
                    <Decode>
                        <TranslatedText>COMPLETED</TranslatedText>
                    </Decode>
                </CodeListItem>
                <CodeListItem CodedValue="PATIENT DID NOT MEET INCLUSION/EXCLUSION CRITERIA AT SCREENING">
                    <Decode>
                        <TranslatedText>PATIENT DID NOT MEET INCLUSION/EXCLUSION CRITERIA AT SCREENING</TranslatedText>
                    </Decode>
                </CodeListItem>
                <CodeListItem CodedValue="DISCONTINUED DUE TO LACK OF THERAPEUTIC RESPONSE">
                    <Decode>
                        <TranslatedText>DISCONTINUED DUE TO LACK OF THERAPEUTIC RESPONSE</TranslatedText>
                    </Decode>
                </CodeListItem>
                <CodeListItem CodedValue="DISCONTINUED DUE TO ADVERSE EVENT">
                    <Decode>
                        <TranslatedText>DISCONTINUED DUE TO ADVERSE EVENT</TranslatedText>
                    </Decode>
                </CodeListItem>
                <CodeListItem CodedValue="PROTOCOL VIOLATION">
                    <Decode>
                        <TranslatedText>PROTOCOL VIOLATION</TranslatedText>
                    </Decode>
                </CodeListItem>
                <CodeListItem CodedValue="DISCONTINUED DUE TO CONSENT WITHDRAWEL">
                    <Decode>
                        <TranslatedText>DISCONTINUED DUE TO CONSENT WITHDRAWEL</TranslatedText>
                    </Decode>
                </CodeListItem>
                <CodeListItem CodedValue="DISCONTINUED DUE TO LOST TO FOLLOW UP">
                    <Decode>
                        <TranslatedText>DISCONTINUED DUE TO LOST TO FOLLOW UP</TranslatedText>
                    </Decode>
                </CodeListItem>
                <CodeListItem CodedValue="DISCONTINUED DUE TO SPONSOR/INVESTIGATOR DECISION">
                    <Decode>
                        <TranslatedText>DISCONTINUED DUE TO SPONSOR/INVESTIGATOR DECISION</TranslatedText>
                    </Decode>
                </CodeListItem>
                <CodeListItem CodedValue="DID NOT MEET INCLUSION CRITERIA #3">
                    <Decode>
                        <TranslatedText>DID NOT MEET INCLUSION CRITERIA #3</TranslatedText>
                    </Decode>
                </CodeListItem>
                <CodeListItem CodedValue="INFORMED CONSENT OBTAINED">
                    <Decode>
