<?xml version="1.0" encoding="UTF-8"?>

<ODM xmlns="http://www.cdisc.org/ns/odm/v1.3" xmlns:xs="http://www.w3.org/2001/XMLSchema-instance" xmlns:nciodm="http://ncicb.nci.nih.gov/xml/odm/EVS/CDISC" xs:schemaLocation="http://www.nci.nih.gov/EVS/CDISC ../schema/controlledterminology1-0-0.xsd" FileType="Snapshot" FileOID="CDISC_CT.QS.2013-12-20" Granularity="Metadata" CreationDateTime="2013-12-17T10:27:32" AsOfDateTime="2013-12-20T00:00:00" ODMVersion="1.3.1" Originator="CDISC XML Technologies Team (Terminology2ODM converter)" SourceSystem="NCI Thesaurus" SourceSystemVersion="2013-12-20">
    <Study OID="CDISC_CT.QS.2013-12-20">
        <GlobalVariables>
            <StudyName>CDISC QS Controlled Terminology</StudyName>
            <StudyDescription>CDISC QS Controlled Terminology, 2013-12-20</StudyDescription>
            <ProtocolName>CDISC QS Controlled Terminology</ProtocolName>
        </GlobalVariables>
        <MetaDataVersion OID="CDISC_CT_MetaDataVersion.QS.2013-12-20" Name="CDISC QS Controlled Terminology" Description="CDISC QS Controlled Terminology, 2013-12-20">
            <CodeList OID="CL.C101805.AIMS TESTCD" Name="Abnormal Involuntary Movement Scale Test Code" DataType="text" nciodm:ExtCodeID="C101805" nciodm:CodeListExtensible="No">
                <Description>
                    <TranslatedText xml:lang="en">Abnormal Involuntary Movement Scale test code.</TranslatedText>
                </Description>
                <EnumeratedItem CodedValue="AIMS0101" nciodm:ExtCodeID="C102034">
                    <nciodm:CDISCSynonym>AIMS01-Muscles of Facial Expression</nciodm:CDISCSynonym>
                    <nciodm:CDISCDefinition>Abnormal Involuntary Movement Scale - Facial and Oral Movements, Muscles of facial expression, e.g., movements of forehead, eyebrows, periorbital area, cheeks. Include frowning, blinking, grimacing of upper face.</nciodm:CDISCDefinition>
                    <nciodm:PreferredTerm>AIMS - Muscles of Facial Expression</nciodm:PreferredTerm>
                </EnumeratedItem>
                <EnumeratedItem CodedValue="AIMS0102" nciodm:ExtCodeID="C102035">
                    <nciodm:CDISCSynonym>AIMS01-Lips and Perioral Area</nciodm:CDISCSynonym>
                    <nciodm:CDISCDefinition>Abnormal Involuntary Movement Scale - Facial and Oral Movements, Lips and perioral area, e.g., puckering, pouting, smacking.</nciodm:CDISCDefinition>
                    <nciodm:PreferredTerm>AIMS - Lips and Perioral Area</nciodm:PreferredTerm>
                </EnumeratedItem>
                <EnumeratedItem CodedValue="AIMS0103" nciodm:ExtCodeID="C102036">
                    <nciodm:CDISCSynonym>AIMS01-Jaw</nciodm:CDISCSynonym>
                    <nciodm:CDISCDefinition>Abnormal Involuntary Movement Scale - Facial and Oral Movements, Jaw, e.g., biting, clenching, chewing, mouth opening, lateral movement.</nciodm:CDISCDefinition>
                    <nciodm:PreferredTerm>AIMS - Jaw</nciodm:PreferredTerm>
                </EnumeratedItem>
                <EnumeratedItem CodedValue="AIMS0104" nciodm:ExtCodeID="C102037">
                    <nciodm:CDISCSynonym>AIMS01-Tongue</nciodm:CDISCSynonym>
                    <nciodm:CDISCDefinition>Abnormal Involuntary Movement Scale - Facial and Oral Movements, Tongue. Rate only increase in movement both in and out of mouth, not inability to sustain movement.</nciodm:CDISCDefinition>
                    <nciodm:PreferredTerm>AIMS - Tongue</nciodm:PreferredTerm>
                </EnumeratedItem>
                <EnumeratedItem CodedValue="AIMS0105" nciodm:ExtCodeID="C102038">
                    <nciodm:CDISCSynonym>AIMS01-Upper Extremities</nciodm:CDISCSynonym>
                    <nciodm:CDISCDefinition>Abnormal Involuntary Movement Scale - Extremity Movements, Upper (arms, wrists, hands, fingers). Include movements that are choreic (rapid, objectively purposeless, irregular, spontaneous) or athetoid (slow, irregular, complex, serpentine). Do not include tremor (repetitive, regular, rhythmic movements).</nciodm:CDISCDefinition>
                    <nciodm:PreferredTerm>AIMS - Upper Extremities</nciodm:PreferredTerm>
                </EnumeratedItem>
                <EnumeratedItem CodedValue="AIMS0106" nciodm:ExtCodeID="C102039">
                    <nciodm:CDISCSynonym>AIMS01-Lower Extremities</nciodm:CDISCSynonym>
                    <nciodm:CDISCDefinition>Abnormal Involuntary Movement Scale - Extremity Movements, Lower (legs, knees, ankles, toes), e.g., lateral knee movement, foot tapping, heel dropping, foot squirming, inversion and eversion of foot.</nciodm:CDISCDefinition>
                    <nciodm:PreferredTerm>AIMS - Lower Extremities</nciodm:PreferredTerm>
                </EnumeratedItem>
                <EnumeratedItem CodedValue="AIMS0107" nciodm:ExtCodeID="C102040">
                    <nciodm:CDISCSynonym>AIMS01-Neck, Shoulders, Hips</nciodm:CDISCSynonym>
                    <nciodm:CDISCDefinition>Abnormal Involuntary Movement Scale - Trunk Movements, Neck, shoulders, hips, e.g., rocking, twisting, squirming, pelvic gyrations. Include diaphragmatic movements.</nciodm:CDISCDefinition>
                    <nciodm:PreferredTerm>AIMS - Neck, Shoulders, Hips</nciodm:PreferredTerm>
                </EnumeratedItem>
                <EnumeratedItem CodedValue="AIMS0108" nciodm:ExtCodeID="C102041">
                    <nciodm:CDISCSynonym>AIMS01-Severity of Abnormal Movements</nciodm:CDISCSynonym>
                    <nciodm:CDISCDefinition>Abnormal Involuntary Movement Scale - Global Judgments, Severity of abnormal movements, based on the highest single score on the above items.</nciodm:CDISCDefinition>
                    <nciodm:PreferredTerm>AIMS - Severity of Abnormal Movements</nciodm:PreferredTerm>
                </EnumeratedItem>
                <EnumeratedItem CodedValue="AIMS0109" nciodm:ExtCodeID="C102042">
                    <nciodm:CDISCSynonym>AIMS01-Incapacitation due Abn Movements</nciodm:CDISCSynonym>
                    <nciodm:CDISCDefinition>Abnormal Involuntary Movement Scale - Global Judgments, Incapacitation due to abnormal movements.</nciodm:CDISCDefinition>
                    <nciodm:PreferredTerm>AIMS - Incapacitation Due to Abnormal Movements</nciodm:PreferredTerm>
                </EnumeratedItem>
                <EnumeratedItem CodedValue="AIMS0110" nciodm:ExtCodeID="C102043">
                    <nciodm:CDISCSynonym>AIMS01-Patient Awareness Abn Movements</nciodm:CDISCSynonym>
                    <nciodm:CDISCDefinition>Abnormal Involuntary Movement Scale - Global Judgments, Patient's awareness of abnormal movements.</nciodm:CDISCDefinition>
                    <nciodm:PreferredTerm>AIMS - Patient's Awareness of Abnormal Movements</nciodm:PreferredTerm>
                </EnumeratedItem>
                <EnumeratedItem CodedValue="AIMS0111" nciodm:ExtCodeID="C102044">
                    <nciodm:CDISCSynonym>AIMS01-Current Problems Teeth/Dentures</nciodm:CDISCSynonym>
                    <nciodm:CDISCDefinition>Abnormal Involuntary Movement Scale - Dental Status, Current problems with teeth and/or dentures.</nciodm:CDISCDefinition>
                    <nciodm:PreferredTerm>AIMS - Current Teeth/Dentures Problems</nciodm:PreferredTerm>
                </EnumeratedItem>
                <EnumeratedItem CodedValue="AIMS0112" nciodm:ExtCodeID="C102045">
                    <nciodm:CDISCSynonym>AIMS01-Patient Usually Wear Dentures</nciodm:CDISCSynonym>
                    <nciodm:CDISCDefinition>Abnormal Involuntary Movement Scale - Dental Status, Does patient usually wear dentures?</nciodm:CDISCDefinition>
                    <nciodm:PreferredTerm>AIMS - Patient Usually Wears Dentures</nciodm:PreferredTerm>
                </EnumeratedItem>
                <nciodm:CDISCSubmissionValue>AIMS TESTCD</nciodm:CDISCSubmissionValue>
                <nciodm:CDISCSynonym>Abnormal Involuntary Movement Scale Test Code</nciodm:CDISCSynonym>
                <nciodm:PreferredTerm>CDISC Questionnaire AIMS Test Code Terminology</nciodm:PreferredTerm>
            </CodeList>
            <CodeList OID="CL.C101806.AIMS TEST" Name="Abnormal Involuntary Movement Scale Test Name" DataType="text" nciodm:ExtCodeID="C101806" nciodm:CodeListExtensible="No">
                <Description>
                    <TranslatedText xml:lang="en">Abnormal Involuntary Movement Scale test name.</TranslatedText>
                </Description>
                <EnumeratedItem CodedValue="AIMS01-Current Problems Teeth/Dentures" nciodm:ExtCodeID="C102044">
                    <nciodm:CDISCSynonym>AIMS01-Current Problems Teeth/Dentures</nciodm:CDISCSynonym>
                    <nciodm:CDISCDefinition>Abnormal Involuntary Movement Scale - Dental Status, Current problems with teeth and/or dentures.</nciodm:CDISCDefinition>
                    <nciodm:PreferredTerm>AIMS - Current Teeth/Dentures Problems</nciodm:PreferredTerm>
                </EnumeratedItem>
                <EnumeratedItem CodedValue="AIMS01-Incapacitation due Abn Movements" nciodm:ExtCodeID="C102042">
                    <nciodm:CDISCSynonym>AIMS01-Incapacitation due Abn Movements</nciodm:CDISCSynonym>
                    <nciodm:CDISCDefinition>Abnormal Involuntary Movement Scale - Global Judgments, Incapacitation due to abnormal movements.</nciodm:CDISCDefinition>
                    <nciodm:PreferredTerm>AIMS - Incapacitation Due to Abnormal Movements</nciodm:PreferredTerm>
                </EnumeratedItem>
                <EnumeratedItem CodedValue="AIMS01-Jaw" nciodm:ExtCodeID="C102036">
                    <nciodm:CDISCSynonym>AIMS01-Jaw</nciodm:CDISCSynonym>
                    <nciodm:CDISCDefinition>Abnormal Involuntary Movement Scale - Facial and Oral Movements, Jaw, e.g., biting, clenching, chewing, mouth opening, lateral movement.</nciodm:CDISCDefinition>
                    <nciodm:PreferredTerm>AIMS - Jaw</nciodm:PreferredTerm>
                </EnumeratedItem>
                <EnumeratedItem CodedValue="AIMS01-Lips and Perioral Area" nciodm:ExtCodeID="C102035">
                    <nciodm:CDISCSynonym>AIMS01-Lips and Perioral Area</nciodm:CDISCSynonym>
                    <nciodm:CDISCDefinition>Abnormal Involuntary Movement Scale - Facial and Oral Movements, Lips and perioral area, e.g., puckering, pouting, smacking.</nciodm:CDISCDefinition>
                    <nciodm:PreferredTerm>AIMS - Lips and Perioral Area</nciodm:PreferredTerm>
                </EnumeratedItem>
                <EnumeratedItem CodedValue="AIMS01-Lower Extremities" nciodm:ExtCodeID="C102039">
                    <nciodm:CDISCSynonym>AIMS01-Lower Extremities</nciodm:CDISCSynonym>
                    <nciodm:CDISCDefinition>Abnormal Involuntary Movement Scale - Extremity Movements, Lower (legs, knees, ankles, toes), e.g., lateral knee movement, foot tapping, heel dropping, foot squirming, inversion and eversion of foot.</nciodm:CDISCDefinition>
                    <nciodm:PreferredTerm>AIMS - Lower Extremities</nciodm:PreferredTerm>
                </EnumeratedItem>
                <EnumeratedItem CodedValue="AIMS01-Muscles of Facial Expression" nciodm:ExtCodeID="C102034">
                    <nciodm:CDISCSynonym>AIMS01-Muscles of Facial Expression</nciodm:CDISCSynonym>
                    <nciodm:CDISCDefinition>Abnormal Involuntary Movement Scale - Facial and Oral Movements, Muscles of facial expression, e.g., movements of forehead, eyebrows, periorbital area, cheeks. Include frowning, blinking, grimacing of upper face.</nciodm:CDISCDefinition>
                    <nciodm:PreferredTerm>AIMS - Muscles of Facial Expression</nciodm:PreferredTerm>
                </EnumeratedItem>
                <EnumeratedItem CodedValue="AIMS01-Neck, Shoulders, Hips" nciodm:ExtCodeID="C102040">
                    <nciodm:CDISCSynonym>AIMS01-Neck, Shoulders, Hips</nciodm:CDISCSynonym>
                    <nciodm:CDISCDefinition>Abnormal Involuntary Movement Scale - Trunk Movements, Neck, shoulders, hips, e.g., rocking, twisting, squirming, pelvic gyrations. Include diaphragmatic movements.</nciodm:CDISCDefinition>
                    <nciodm:PreferredTerm>AIMS - Neck, Shoulders, Hips</nciodm:PreferredTerm>
                </EnumeratedItem>
                <EnumeratedItem CodedValue="AIMS01-Patient Awareness Abn Movements" nciodm:ExtCodeID="C102043">
                    <nciodm:CDISCSynonym>AIMS01-Patient Awareness Abn Movements</nciodm:CDISCSynonym>
                    <nciodm:CDISCDefinition>Abnormal Involuntary Movement Scale - Global Judgments, Patient's awareness of abnormal movements.</nciodm:CDISCDefinition>
                    <nciodm:PreferredTerm>AIMS - Patient's Awareness of Abnormal Movements</nciodm:PreferredTerm>
                </EnumeratedItem>
                <EnumeratedItem CodedValue="AIMS01-Patient Usually Wear Dentures" nciodm:ExtCodeID="C102045">
                    <nciodm:CDISCSynonym>AIMS01-Patient Usually Wear Dentures</nciodm:CDISCSynonym>
                    <nciodm:CDISCDefinition>Abnormal Involuntary Movement Scale - Dental Status, Does patient usually wear dentures?</nciodm:CDISCDefinition>
                    <nciodm:PreferredTerm>AIMS - Patient Usually Wears Dentures</nciodm:PreferredTerm>
                </EnumeratedItem>
                <EnumeratedItem CodedValue="AIMS01-Severity of Abnormal Movements" nciodm:ExtCodeID="C102041">
                    <nciodm:CDISCSynonym>AIMS01-Severity of Abnormal Movements</nciodm:CDISCSynonym>
                    <nciodm:CDISCDefinition>Abnormal Involuntary Movement Scale - Global Judgments, Severity of abnormal movements, based on the highest single score on the above items.</nciodm:CDISCDefinition>
                    <nciodm:PreferredTerm>AIMS - Severity of Abnormal Movements</nciodm:PreferredTerm>
                </EnumeratedItem>
                <EnumeratedItem CodedValue="AIMS01-Tongue" nciodm:ExtCodeID="C102037">
                    <nciodm:CDISCSynonym>AIMS01-Tongue</nciodm:CDISCSynonym>
                    <nciodm:CDISCDefinition>Abnormal Involuntary Movement Scale - Facial and Oral Movements, Tongue. Rate only increase in movement both in and out of mouth, not inability to sustain movement.</nciodm:CDISCDefinition>
                    <nciodm:PreferredTerm>AIMS - Tongue</nciodm:PreferredTerm>
                </EnumeratedItem>
                <EnumeratedItem CodedValue="AIMS01-Upper Extremities" nciodm:ExtCodeID="C102038">
                    <nciodm:CDISCSynonym>AIMS01-Upper Extremities</nciodm:CDISCSynonym>
                    <nciodm:CDISCDefinition>Abnormal Involuntary Movement Scale - Extremity Movements, Upper (arms, wrists, hands, fingers). Include movements that are choreic (rapid, objectively purposeless, irregular, spontaneous) or athetoid (slow, irregular, complex, serpentine). Do not include tremor (repetitive, regular, rhythmic movements).</nciodm:CDISCDefinition>
                    <nciodm:PreferredTerm>AIMS - Upper Extremities</nciodm:PreferredTerm>
                </EnumeratedItem>
                <nciodm:CDISCSubmissionValue>AIMS TEST</nciodm:CDISCSubmissionValue>
                <nciodm:CDISCSynonym>Abnormal Involuntary Movement Scale Test Name</nciodm:CDISCSynonym>
                <nciodm:PreferredTerm>CDISC Questionnaire AIMS Test Name Terminology</nciodm:PreferredTerm>
            </CodeList>
            <CodeList OID="CL.C101807.AVLT TESTCD" Name="ADNI AVLT Test Code" DataType="text" nciodm:ExtCodeID="C101807" nciodm:CodeListExtensible="No">
                <Description>
                    <TranslatedText xml:lang="en">ADNI AVLT test code.</TranslatedText>
                </Description>
                <EnumeratedItem CodedValue="AVL01001" nciodm:ExtCodeID="C101896">
                    <nciodm:CDISCSynonym>AVL01-List A Recall 1 Word 1</nciodm:CDISCSynonym>
                    <nciodm:CDISCDefinition>Auditory Verbal Learning Test Version A - List A, Recall 1, Word 1.</nciodm:CDISCDefinition>
                    <nciodm:PreferredTerm>ADNI AVLT - List A Recall 1 Word 1</nciodm:PreferredTerm>
                </EnumeratedItem>
                <EnumeratedItem CodedValue="AVL01002" nciodm:ExtCodeID="C101897">
                    <nciodm:CDISCSynonym>AVL01-List A Recall 1 Word 2</nciodm:CDISCSynonym>
                    <nciodm:CDISCDefinition>Auditory Verbal Learning Test Version A - List A, Recall 1, Word 2.</nciodm:CDISCDefinition>
                    <nciodm:PreferredTerm>ADNI AVLT - List A Recall 1 Word 2</nciodm:PreferredTerm>
                </EnumeratedItem>
                <EnumeratedItem CodedValue="AVL01003" nciodm:ExtCodeID="C101898">
                    <nciodm:CDISCSynonym>AVL01-List A Recall 1 Word 3</nciodm:CDISCSynonym>
                    <nciodm:CDISCDefinition>Auditory Verbal Learning Test Version A - List A, Recall 1, Word 3.</nciodm:CDISCDefinition>
                    <nciodm:PreferredTerm>ADNI AVLT - List A Recall 1 Word 3</nciodm:PreferredTerm>
                </EnumeratedItem>
                <EnumeratedItem CodedValue="AVL01004" nciodm:ExtCodeID="C101899">
                    <nciodm:CDISCSynonym>AVL01-List A Recall 1 Word 4</nciodm:CDISCSynonym>
                    <nciodm:CDISCDefinition>Auditory Verbal Learning Test Version A - List A, Recall 1, Word 4.</nciodm:CDISCDefinition>
                    <nciodm:PreferredTerm>ADNI AVLT - List A Recall 1 Word 4</nciodm:PreferredTerm>
                </EnumeratedItem>
                <EnumeratedItem CodedValue="AVL01005" nciodm:ExtCodeID="C101900">
                    <nciodm:CDISCSynonym>AVL01-List A Recall 1 Word 5</nciodm:CDISCSynonym>
                    <nciodm:CDISCDefinition>Auditory Verbal Learning Test Version A - List A, Recall 1, Word 5.</nciodm:CDISCDefinition>
                    <nciodm:PreferredTerm>ADNI AVLT - List A Recall 1 Word 5</nciodm:PreferredTerm>
                </EnumeratedItem>
                <EnumeratedItem CodedValue="AVL01006" nciodm:ExtCodeID="C101901">
                    <nciodm:CDISCSynonym>AVL01-List A Recall 1 Word 6</nciodm:CDISCSynonym>
                    <nciodm:CDISCDefinition>Auditory Verbal Learning Test Version A - List A, Recall 1, Word 6.</nciodm:CDISCDefinition>
                    <nciodm:PreferredTerm>ADNI AVLT - List A Recall 1 Word 6</nciodm:PreferredTerm>
                </EnumeratedItem>
                <EnumeratedItem CodedValue="AVL01007" nciodm:ExtCodeID="C101902">
                    <nciodm:CDISCSynonym>AVL01-List A Recall 1 Word 7</nciodm:CDISCSynonym>
                    <nciodm:CDISCDefinition>Auditory Verbal Learning Test Version A - List A, Recall 1, Word 7.</nciodm:CDISCDefinition>
                    <nciodm:PreferredTerm>ADNI AVLT - List A Recall 1 Word 7</nciodm:PreferredTerm>
                </EnumeratedItem>
                <EnumeratedItem CodedValue="AVL01008" nciodm:ExtCodeID="C101903">
                    <nciodm:CDISCSynonym>AVL01-List A Recall 1 Word 8</nciodm:CDISCSynonym>
                    <nciodm:CDISCDefinition>Auditory Verbal Learning Test Version A - List A, Recall 1, Word 8.</nciodm:CDISCDefinition>
                    <nciodm:PreferredTerm>ADNI AVLT - List A Recall 1 Word 8</nciodm:PreferredTerm>
                </EnumeratedItem>
                <EnumeratedItem CodedValue="AVL01009" nciodm:ExtCodeID="C101904">
                    <nciodm:CDISCSynonym>AVL01-List A Recall 1 Word 9</nciodm:CDISCSynonym>
                    <nciodm:CDISCDefinition>Auditory Verbal Learning Test Version A - List A, Recall 1, Word 9.</nciodm:CDISCDefinition>
                    <nciodm:PreferredTerm>ADNI AVLT - List A Recall 1 Word 9</nciodm:PreferredTerm>
                </EnumeratedItem>
                <EnumeratedItem CodedValue="AVL01010" nciodm:ExtCodeID="C101905">
                    <nciodm:CDISCSynonym>AVL01-List A Recall 1 Word 10</nciodm:CDISCSynonym>
                    <nciodm:CDISCDefinition>Auditory Verbal Learning Test Version A - List A, Recall 1, Word 10.</nciodm:CDISCDefinition>
                    <nciodm:PreferredTerm>ADNI AVLT - List A Recall 1 Word 10</nciodm:PreferredTerm>
                </EnumeratedItem>
                <EnumeratedItem CodedValue="AVL01011" nciodm:ExtCodeID="C101906">
                    <nciodm:CDISCSynonym>AVL01-List A Recall 1 Word 11</nciodm:CDISCSynonym>
                    <nciodm:CDISCDefinition>Auditory Verbal Learning Test Version A - List A, Recall 1, Word 11.</nciodm:CDISCDefinition>
                    <nciodm:PreferredTerm>ADNI AVLT - List A Recall 1 Word 11</nciodm:PreferredTerm>
                </EnumeratedItem>
                <EnumeratedItem CodedValue="AVL01012" nciodm:ExtCodeID="C101907">
                    <nciodm:CDISCSynonym>AVL01-List A Recall 1 Word 12</nciodm:CDISCSynonym>
                    <nciodm:CDISCDefinition>Auditory Verbal Learning Test Version A - List A, Recall 1, Word 12.</nciodm:CDISCDefinition>
                    <nciodm:PreferredTerm>ADNI AVLT - List A Recall 1 Word 12</nciodm:PreferredTerm>
                </EnumeratedItem>
                <EnumeratedItem CodedValue="AVL01013" nciodm:ExtCodeID="C101908">
                    <nciodm:CDISCSynonym>AVL01-List A Recall 1 Word 13</nciodm:CDISCSynonym>
                    <nciodm:CDISCDefinition>Auditory Verbal Learning Test Version A - List A, Recall 1, Word 13.</nciodm:CDISCDefinition>
                    <nciodm:PreferredTerm>ADNI AVLT - List A Recall 1 Word 13</nciodm:PreferredTerm>
                </EnumeratedItem>
                <EnumeratedItem CodedValue="AVL01014" nciodm:ExtCodeID="C101909">
                    <nciodm:CDISCSynonym>AVL01-List A Recall 1 Word 14</nciodm:CDISCSynonym>
                    <nciodm:CDISCDefinition>Auditory Verbal Learning Test Version A - List A, Recall 1, Word 14.</nciodm:CDISCDefinition>
                    <nciodm:PreferredTerm>ADNI AVLT - List A Recall 1 Word 14</nciodm:PreferredTerm>
                </EnumeratedItem>
                <EnumeratedItem CodedValue="AVL01015" nciodm:ExtCodeID="C101910">
                    <nciodm:CDISCSynonym>AVL01-List A Recall 1 Word 15</nciodm:CDISCSynonym>
                    <nciodm:CDISCDefinition>Auditory Verbal Learning Test Version A - List A, Recall 1, Word 15.</nciodm:CDISCDefinition>
                    <nciodm:PreferredTerm>ADNI AVLT - List A Recall 1 Word 15</nciodm:PreferredTerm>
                </EnumeratedItem>
                <EnumeratedItem CodedValue="AVL01016" nciodm:ExtCodeID="C101911">
                    <nciodm:CDISCSynonym>AVL01-List A Recall 1 Total</nciodm:CDISCSynonym>
                    <nciodm:CDISCDefinition>Auditory Verbal Learning Test Version A - The number of words recalled from List A, first attempt.</nciodm:CDISCDefinition>
                    <nciodm:PreferredTerm>ADNI AVLT - List A Recall 1 Total</nciodm:PreferredTerm>
                </EnumeratedItem>
                <EnumeratedItem CodedValue="AVL01017" nciodm:ExtCodeID="C101912">
                    <nciodm:CDISCSynonym>AVL01-List A Intrusions 1</nciodm:CDISCSynonym>
                    <nciodm:CDISCDefinition>Auditory Verbal Learning Test Version A - The number of intrusions while recalling List A, first attempt.</nciodm:CDISCDefinition>
                    <nciodm:PreferredTerm>ADNI AVLT - List A Intrusions 1</nciodm:PreferredTerm>
                </EnumeratedItem>
                <EnumeratedItem CodedValue="AVL01018" nciodm:ExtCodeID="C101913">
                    <nciodm:CDISCSynonym>AVL01-List A Recall 2 Word 1</nciodm:CDISCSynonym>
                    <nciodm:CDISCDefinition>Auditory Verbal Learning Test Version A - List A, Recall 2, Word 1.</nciodm:CDISCDefinition>
                    <nciodm:PreferredTerm>ADNI AVLT - List A Recall 2 Word 1</nciodm:PreferredTerm>
                </EnumeratedItem>
                <EnumeratedItem CodedValue="AVL01019" nciodm:ExtCodeID="C101914">
                    <nciodm:CDISCSynonym>AVL01-List A Recall 2 Word 2</nciodm:CDISCSynonym>
                    <nciodm:CDISCDefinition>Auditory Verbal Learning Test Version A - List A, Recall 2, Word 2.</nciodm:CDISCDefinition>
                    <nciodm:PreferredTerm>ADNI AVLT - List A Recall 2 Word 2</nciodm:PreferredTerm>
                </EnumeratedItem>
                <EnumeratedItem CodedValue="AVL01020" nciodm:ExtCodeID="C101915">
                    <nciodm:CDISCSynonym>AVL01-List A Recall 2 Word 3</nciodm:CDISCSynonym>
                    <nciodm:CDISCDefinition>Auditory Verbal Learning Test Version A - List A, Recall 2, Word 3.</nciodm:CDISCDefinition>
                    <nciodm:PreferredTerm>ADNI AVLT - List A Recall 2 Word 3</nciodm:PreferredTerm>
                </EnumeratedItem>
                <EnumeratedItem CodedValue="AVL01021" nciodm:ExtCodeID="C101916">
                    <nciodm:CDISCSynonym>AVL01-List A Recall 2 Word 4</nciodm:CDISCSynonym>
                    <nciodm:CDISCDefinition>Auditory Verbal Learning Test Version A - List A, Recall 2, Word 4.</nciodm:CDISCDefinition>
                    <nciodm:PreferredTerm>ADNI AVLT - List A Recall 2 Word 4</nciodm:PreferredTerm>
                </EnumeratedItem>
                <EnumeratedItem CodedValue="AVL01022" nciodm:ExtCodeID="C101917">
                    <nciodm:CDISCSynonym>AVL01-List A Recall 2 Word 5</nciodm:CDISCSynonym>
                    <nciodm:CDISCDefinition>Auditory Verbal Learning Test Version A - List A, Recall 2, Word 5.</nciodm:CDISCDefinition>
                    <nciodm:PreferredTerm>ADNI AVLT - List A Recall 2 Word 5</nciodm:PreferredTerm>
                </EnumeratedItem>
                <EnumeratedItem CodedValue="AVL01023" nciodm:ExtCodeID="C101918">
                    <nciodm:CDISCSynonym>AVL01-List A Recall 2 Word 6</nciodm:CDISCSynonym>
                    <nciodm:CDISCDefinition>Auditory Verbal Learning Test Version A - List A, Recall 2, Word 6.</nciodm:CDISCDefinition>
                    <nciodm:PreferredTerm>ADNI AVLT - List A Recall 2 Word 6</nciodm:PreferredTerm>
                </EnumeratedItem>
                <EnumeratedItem CodedValue="AVL01024" nciodm:ExtCodeID="C101919">
                    <nciodm:CDISCSynonym>AVL01-List A Recall 2 Word 7</nciodm:CDISCSynonym>
                    <nciodm:CDISCDefinition>Auditory Verbal Learning Test Version A - List A, Recall 2, Word 7.</nciodm:CDISCDefinition>
                    <nciodm:PreferredTerm>ADNI AVLT - List A Recall 2 Word 7</nciodm:PreferredTerm>
                </EnumeratedItem>
                <EnumeratedItem CodedValue="AVL01025" nciodm:ExtCodeID="C101920">
                    <nciodm:CDISCSynonym>AVL01-List A Recall 2 Word 8</nciodm:CDISCSynonym>
                    <nciodm:CDISCDefinition>Auditory Verbal Learning Test Version A - List A, Recall 2, Word 8.</nciodm:CDISCDefinition>
                    <nciodm:PreferredTerm>ADNI AVLT - List A Recall 2 Word 8</nciodm:PreferredTerm>
                </EnumeratedItem>
                <EnumeratedItem CodedValue="AVL01026" nciodm:ExtCodeID="C101921">
                    <nciodm:CDISCSynonym>AVL01-List A Recall 2 Word 9</nciodm:CDISCSynonym>
                    <nciodm:CDISCDefinition>Auditory Verbal Learning Test Version A - List A, Recall 2, Word 9.</nciodm:CDISCDefinition>
                    <nciodm:PreferredTerm>ADNI AVLT - List A Recall 2 Word 9</nciodm:PreferredTerm>
                </EnumeratedItem>
                <EnumeratedItem CodedValue="AVL01027" nciodm:ExtCodeID="C101922">
                    <nciodm:CDISCSynonym>AVL01-List A Recall 2 Word 10</nciodm:CDISCSynonym>
                    <nciodm:CDISCDefinition>Auditory Verbal Learning Test Version A - List A, Recall 2, Word 10.</nciodm:CDISCDefinition>
                    <nciodm:PreferredTerm>ADNI AVLT - List A Recall 2 Word 10</nciodm:PreferredTerm>
                </EnumeratedItem>
                <EnumeratedItem CodedValue="AVL01028" nciodm:ExtCodeID="C101923">
                    <nciodm:CDISCSynonym>AVL01-List A Recall 2 Word 11</nciodm:CDISCSynonym>
                    <nciodm:CDISCDefinition>Auditory Verbal Learning Test Version A - List A, Recall 2, Word 11.</nciodm:CDISCDefinition>
                    <nciodm:PreferredTerm>ADNI AVLT - List A Recall 2 Word 11</nciodm:PreferredTerm>
                </EnumeratedItem>
                <EnumeratedItem CodedValue="AVL01029" nciodm:ExtCodeID="C101924">
                    <nciodm:CDISCSynonym>AVL01-List A Recall 2 Word 12</nciodm:CDISCSynonym>
                    <nciodm:CDISCDefinition>Auditory Verbal Learning Test Version A - List A, Recall 2, Word 12.</nciodm:CDISCDefinition>
                    <nciodm:PreferredTerm>ADNI AVLT - List A Recall 2 Word 12</nciodm:PreferredTerm>
                </EnumeratedItem>
                <EnumeratedItem CodedValue="AVL01030" nciodm:ExtCodeID="C101925">
                    <nciodm:CDISCSynonym>AVL01-List A Recall 2 Word 13</nciodm:CDISCSynonym>
                    <nciodm:CDISCDefinition>Auditory Verbal Learning Test Version A - List A, Recall 2, Word 13.</nciodm:CDISCDefinition>
                    <nciodm:PreferredTerm>ADNI AVLT - List A Recall 2 Word 13</nciodm:PreferredTerm>
                </EnumeratedItem>
                <EnumeratedItem CodedValue="AVL01031" nciodm:ExtCodeID="C101926">
                    <nciodm:CDISCSynonym>AVL01-List A Recall 2 Word 14</nciodm:CDISCSynonym>
                    <nciodm:CDISCDefinition>Auditory Verbal Learning Test Version A - List A, Recall 2, Word 14.</nciodm:CDISCDefinition>
                    <nciodm:PreferredTerm>ADNI AVLT - List A Recall 2 Word 14</nciodm:PreferredTerm>
                </EnumeratedItem>
                <EnumeratedItem CodedValue="AVL01032" nciodm:ExtCodeID="C101927">
                    <nciodm:CDISCSynonym>AVL01-List A Recall 2 Word 15</nciodm:CDISCSynonym>
                    <nciodm:CDISCDefinition>Auditory Verbal Learning Test Version A - List A, Recall 2, Word 15.</nciodm:CDISCDefinition>
                    <nciodm:PreferredTerm>ADNI AVLT - List A Recall 2 Word 15</nciodm:PreferredTerm>
                </EnumeratedItem>
                <EnumeratedItem CodedValue="AVL01033" nciodm:ExtCodeID="C101928">
                    <nciodm:CDISCSynonym>AVL01-List A Recall 2 Total</nciodm:CDISCSynonym>
                    <nciodm:CDISCDefinition>Auditory Verbal Learning Test Version A - The number of words recalled from List A, second attempt.</nciodm:CDISCDefinition>
                    <nciodm:PreferredTerm>ADNI AVLT - List A Recall 2 Total</nciodm:PreferredTerm>
                </EnumeratedItem>
                <EnumeratedItem CodedValue="AVL01034" nciodm:ExtCodeID="C101929">
                    <nciodm:CDISCSynonym>AVL01-List A Intrusions 2</nciodm:CDISCSynonym>
                    <nciodm:CDISCDefinition>Auditory Verbal Learning Test Version A - The number of intrusions while recalling List A, second attempt.</nciodm:CDISCDefinition>
                    <nciodm:PreferredTerm>ADNI AVLT - List A Intrusions 2</nciodm:PreferredTerm>
                </EnumeratedItem>
                <EnumeratedItem CodedValue="AVL01035" nciodm:ExtCodeID="C101930">
                    <nciodm:CDISCSynonym>AVL01-List A Recall 3 Word 1</nciodm:CDISCSynonym>
                    <nciodm:CDISCDefinition>Auditory Verbal Learning Test Version A - List A, Recall 3, Word 1.</nciodm:CDISCDefinition>
                    <nciodm:PreferredTerm>ADNI AVLT - List A Recall 3 Word 1</nciodm:PreferredTerm>
                </EnumeratedItem>
                <EnumeratedItem CodedValue="AVL01036" nciodm:ExtCodeID="C101931">
                    <nciodm:CDISCSynonym>AVL01-List A Recall 3 Word 2</nciodm:CDISCSynonym>
                    <nciodm:CDISCDefinition>Auditory Verbal Learning Test Version A - List A, Recall 3, Word 2.</nciodm:CDISCDefinition>
                    <nciodm:PreferredTerm>ADNI AVLT - List A Recall 3 Word 2</nciodm:PreferredTerm>
                </EnumeratedItem>
                <EnumeratedItem CodedValue="AVL01037" nciodm:ExtCodeID="C101932">
                    <nciodm:CDISCSynonym>AVL01-List A Recall 3 Word 3</nciodm:CDISCSynonym>
                    <nciodm:CDISCDefinition>Auditory Verbal Learning Test Version A - List A, Recall 3, Word 3.</nciodm:CDISCDefinition>
                    <nciodm:PreferredTerm>ADNI AVLT - List A Recall 3 Word 3</nciodm:PreferredTerm>
                </EnumeratedItem>
                <EnumeratedItem CodedValue="AVL01038" nciodm:ExtCodeID="C101933">
                    <nciodm:CDISCSynonym>AVL01-List A Recall 3 Word 4</nciodm:CDISCSynonym>
                    <nciodm:CDISCDefinition>Auditory Verbal Learning Test Version A - List A, Recall 3, Word 4.</nciodm:CDISCDefinition>
                    <nciodm:PreferredTerm>ADNI AVLT - List A Recall 3 Word 4</nciodm:PreferredTerm>
                </EnumeratedItem>
                <EnumeratedItem CodedValue="AVL01039" nciodm:ExtCodeID="C101934">
                    <nciodm:CDISCSynonym>AVL01-List A Recall 3 Word 5</nciodm:CDISCSynonym>
                    <nciodm:CDISCDefinition>Auditory Verbal Learning Test Version A - List A, Recall 3, Word 5.</nciodm:CDISCDefinition>
                    <nciodm:PreferredTerm>ADNI AVLT - List A Recall 3 Word 5</nciodm:PreferredTerm>
                </EnumeratedItem>
                <EnumeratedItem CodedValue="AVL01040" nciodm:ExtCodeID="C101935">
                    <nciodm:CDISCSynonym>AVL01-List A Recall 3 Word 6</nciodm:CDISCSynonym>
                    <nciodm:CDISCDefinition>Auditory Verbal Learning Test Version A - List A, Recall 3, Word 6.</nciodm:CDISCDefinition>
                    <nciodm:PreferredTerm>ADNI AVLT - List A Recall 3 Word 6</nciodm:PreferredTerm>
                </EnumeratedItem>
                <EnumeratedItem CodedValue="AVL01041" nciodm:ExtCodeID="C101936">
                    <nciodm:CDISCSynonym>AVL01-List A Recall 3 Word 7</nciodm:CDISCSynonym>
                    <nciodm:CDISCDefinition>Auditory Verbal Learning Test Version A - List A, Recall 3, Word 7.</nciodm:CDISCDefinition>
                    <nciodm:PreferredTerm>ADNI AVLT - List A Recall 3 Word 7</nciodm:PreferredTerm>
                </EnumeratedItem>
                <EnumeratedItem CodedValue="AVL01042" nciodm:ExtCodeID="C101937">
                    <nciodm:CDISCSynonym>AVL01-List A Recall 3 Word 8</nciodm:CDISCSynonym>
                    <nciodm:CDISCDefinition>Auditory Verbal Learning Test Version A - List A, Recall 3, Word 8.</nciodm:CDISCDefinition>
                    <nciodm:PreferredTerm>ADNI AVLT - List A Recall 3 Word 8</nciodm:PreferredTerm>
                </EnumeratedItem>
                <EnumeratedItem CodedValue="AVL01043" nciodm:ExtCodeID="C101938">
                    <nciodm:CDISCSynonym>AVL01-List A Recall 3 Word 9</nciodm:CDISCSynonym>
                    <nciodm:CDISCDefinition>Auditory Verbal Learning Test Version A - List A, Recall 3, Word 9.</nciodm:CDISCDefinition>
                    <nciodm:PreferredTerm>ADNI AVLT - List A Recall 3 Word 9</nciodm:PreferredTerm>
                </EnumeratedItem>
                <EnumeratedItem CodedValue="AVL01044" nciodm:ExtCodeID="C101939">
                    <nciodm:CDISCSynonym>AVL01-List A Recall 3 Word 10</nciodm:CDISCSynonym>
                    <nciodm:CDISCDefinition>Auditory Verbal Learning Test Version A - List A, Recall 3, Word 10.</nciodm:CDISCDefinition>
                    <nciodm:PreferredTerm>ADNI AVLT - List A Recall 3 Word 10</nciodm:PreferredTerm>
                </EnumeratedItem>
                <EnumeratedItem CodedValue="AVL01045" nciodm:ExtCodeID="C101940">
                    <nciodm:CDISCSynonym>AVL01-List A Recall 3 Word 11</nciodm:CDISCSynonym>
                    <nciodm:CDISCDefinition>Auditory Verbal Learning Test Version A - List A, Recall 3, Word 11.</nciodm:CDISCDefinition>
                    <nciodm:PreferredTerm>ADNI AVLT - List A Recall 3 Word 11</nciodm:PreferredTerm>
                </EnumeratedItem>
                <EnumeratedItem CodedValue="AVL01046" nciodm:ExtCodeID="C101941">
                    <nciodm:CDISCSynonym>AVL01-List A Recall 3 Word 12</nciodm:CDISCSynonym>
                    <nciodm:CDISCDefinition>Auditory Verbal Learning Test Version A - List A, Recall 3, Word 12.</nciodm:CDISCDefinition>
                    <nciodm:PreferredTerm>ADNI AVLT - List A Recall 3 Word 12</nciodm:PreferredTerm>
                </EnumeratedItem>
                <EnumeratedItem CodedValue="AVL01047" nciodm:ExtCodeID="C101942">
                    <nciodm:CDISCSynonym>AVL01-List A Recall 3 Word 13</nciodm:CDISCSynonym>
                    <nciodm:CDISCDefinition>Auditory Verbal Learning Test Version A - List A, Recall 3, Word 13.</nciodm:CDISCDefinition>
                    <nciodm:PreferredTerm>ADNI AVLT - List A Recall 3 Word 13</nciodm:PreferredTerm>
                </EnumeratedItem>
                <EnumeratedItem CodedValue="AVL01048" nciodm:ExtCodeID="C101943">
                    <nciodm:CDISCSynonym>AVL01-List A Recall 3 Word 14</nciodm:CDISCSynonym>
                    <nciodm:CDISCDefinition>Auditory Verbal Learning Test Version A - List A, Recall 3, Word 14.</nciodm:CDISCDefinition>
                    <nciodm:PreferredTerm>ADNI AVLT - List A Recall 3 Word 14</nciodm:PreferredTerm>
                </EnumeratedItem>
                <EnumeratedItem CodedValue="AVL01049" nciodm:ExtCodeID="C101944">
                    <nciodm:CDISCSynonym>AVL01-List A Recall 3 Word 15</nciodm:CDISCSynonym>
                    <nciodm:CDISCDefinition>Auditory Verbal Learning Test Version A - List A, Recall 3, Word 15.</nciodm:CDISCDefinition>
                    <nciodm:PreferredTerm>ADNI AVLT - List A Recall 3 Word 15</nciodm:PreferredTerm>
                </EnumeratedItem>
                <EnumeratedItem CodedValue="AVL01050" nciodm:ExtCodeID="C101945">
                    <nciodm:CDISCSynonym>AVL01-List A Recall 3 Total</nciodm:CDISCSynonym>
                    <nciodm:CDISCDefinition>Auditory Verbal Learning Test Version A - The number of words recalled from List A, third attempt.</nciodm:CDISCDefinition>
                    <nciodm:PreferredTerm>ADNI AVLT - List A Recall 3 Total</nciodm:PreferredTerm>
                </EnumeratedItem>
                <EnumeratedItem CodedValue="AVL01051" nciodm:ExtCodeID="C101946">
                    <nciodm:CDISCSynonym>AVL01-List A Intrusions 3</nciodm:CDISCSynonym>
                    <nciodm:CDISCDefinition>Auditory Verbal Learning Test Version A - The number of intrusions while recalling List A, third attempt.</nciodm:CDISCDefinition>
                    <nciodm:PreferredTerm>ADNI AVLT - List A Intrusions 3</nciodm:PreferredTerm>
                </EnumeratedItem>
                <EnumeratedItem CodedValue="AVL01052" nciodm:ExtCodeID="C101947">
                    <nciodm:CDISCSynonym>AVL01-List A Recall 4 Word 1</nciodm:CDISCSynonym>
                    <nciodm:CDISCDefinition>Auditory Verbal Learning Test Version A - List A, Recall 4, Word 1.</nciodm:CDISCDefinition>
                    <nciodm:PreferredTerm>ADNI AVLT - List A Recall 4 Word 1</nciodm:PreferredTerm>
                </EnumeratedItem>
                <EnumeratedItem CodedValue="AVL01053" nciodm:ExtCodeID="C101948">
                    <nciodm:CDISCSynonym>AVL01-List A Recall 4 Word 2</nciodm:CDISCSynonym>
                    <nciodm:CDISCDefinition>Auditory Verbal Learning Test Version A - List A, Recall 4, Word 2.</nciodm:CDISCDefinition>
                    <nciodm:PreferredTerm>ADNI AVLT - List A Recall 4 Word 2</nciodm:PreferredTerm>
                </EnumeratedItem>
                <EnumeratedItem CodedValue="AVL01054" nciodm:ExtCodeID="C101949">
                    <nciodm:CDISCSynonym>AVL01-List A Recall 4 Word 3</nciodm:CDISCSynonym>
                    <nciodm:CDISCDefinition>Auditory Verbal Learning Test Version A - List A, Recall 4, Word 3.</nciodm:CDISCDefinition>
                    <nciodm:PreferredTerm>ADNI AVLT - List A Recall 4 Word 3</nciodm:PreferredTerm>
                </EnumeratedItem>
                <EnumeratedItem CodedValue="AVL01055" nciodm:ExtCodeID="C101950">
                    <nciodm:CDISCSynonym>AVL01-List A Recall 4 Word 4</nciodm:CDISCSynonym>
                    <nciodm:CDISCDefinition>Auditory Verbal Learning Test Version A - List A, Recall 4, Word 4.</nciodm:CDISCDefinition>
                    <nciodm:PreferredTerm>ADNI AVLT - List A Recall 4 Word 4</nciodm:PreferredTerm>
                </EnumeratedItem>
                <EnumeratedItem CodedValue="AVL01056" nciodm:ExtCodeID="C101951">
                    <nciodm:CDISCSynonym>AVL01-List A Recall 4 Word 5</nciodm:CDISCSynonym>
                    <nciodm:CDISCDefinition>Auditory Verbal Learning Test Version A - List A, Recall 4, Word 5.</nciodm:CDISCDefinition>
                    <nciodm:PreferredTerm>ADNI AVLT - List A Recall 4 Word 5</nciodm:PreferredTerm>
                </EnumeratedItem>
                <EnumeratedItem CodedValue="AVL01057" nciodm:ExtCodeID="C101952">
                    <nciodm:CDISCSynonym>AVL01-List A Recall 4 Word 6</nciodm:CDISCSynonym>
                    <nciodm:CDISCDefinition>Auditory Verbal Learning Test Version A - List A, Recall 4, Word 6.</nciodm:CDISCDefinition>
                    <nciodm:PreferredTerm>ADNI AVLT - List A Recall 4 Word 6</nciodm:PreferredTerm>
                </EnumeratedItem>
                <EnumeratedItem CodedValue="AVL01058" nciodm:ExtCodeID="C101953">
                    <nciodm:CDISCSynonym>AVL01-List A Recall 4 Word 7</nciodm:CDISCSynonym>
                    <nciodm:CDISCDefinition>Auditory Verbal Learning Test Version A - List A, Recall 4, Word 7.</nciodm:CDISCDefinition>
                    <nciodm:PreferredTerm>ADNI AVLT - List A Recall 4 Word 7</nciodm:PreferredTerm>
                </EnumeratedItem>
                <EnumeratedItem CodedValue="AVL01059" nciodm:ExtCodeID="C101954">
                    <nciodm:CDISCSynonym>AVL01-List A Recall 4 Word 8</nciodm:CDISCSynonym>
                    <nciodm:CDISCDefinition>Auditory Verbal Learning Test Version A - List A, Recall 4, Word 8.</nciodm:CDISCDefinition>
                    <nciodm:PreferredTerm>ADNI AVLT - List A Recall 4 Word 8</nciodm:PreferredTerm>
                </EnumeratedItem>
                <EnumeratedItem CodedValue="AVL01060" nciodm:ExtCodeID="C101955">
                    <nciodm:CDISCSynonym>AVL01-List A Recall 4 Word 9</nciodm:CDISCSynonym>
                    <nciodm:CDISCDefinition>Auditory Verbal Learning Test Version A - List A, Recall 4, Word 9.</nciodm:CDISCDefinition>
                    <nciodm:PreferredTerm>ADNI AVLT - List A Recall 4 Word 9</nciodm:PreferredTerm>
                </EnumeratedItem>
                <EnumeratedItem CodedValue="AVL01061" nciodm:ExtCodeID="C101956">
                    <nciodm:CDISCSynonym>AVL01-List A Recall 4 Word 10</nciodm:CDISCSynonym>
                    <nciodm:CDISCDefinition>Auditory Verbal Learning Test Version A - List A, Recall 4, Word 10.</nciodm:CDISCDefinition>
                    <nciodm:PreferredTerm>ADNI AVLT - List A Recall 4 Word 10</nciodm:PreferredTerm>
                </EnumeratedItem>
                <EnumeratedItem CodedValue="AVL01062" nciodm:ExtCodeID="C101957">
                    <nciodm:CDISCSynonym>AVL01-List A Recall 4 Word 11</nciodm:CDISCSynonym>
                    <nciodm:CDISCDefinition>Auditory Verbal Learning Test Version A - List A, Recall 4, Word 11.</nciodm:CDISCDefinition>
                    <nciodm:PreferredTerm>ADNI AVLT - List A Recall 4 Word 11</nciodm:PreferredTerm>
                </EnumeratedItem>
                <EnumeratedItem CodedValue="AVL01063" nciodm:ExtCodeID="C101958">
                    <nciodm:CDISCSynonym>AVL01-List A Recall 4 Word 12</nciodm:CDISCSynonym>
                    <nciodm:CDISCDefinition>Auditory Verbal Learning Test Version A - List A, Recall 4, Word 12.</nciodm:CDISCDefinition>
                    <nciodm:PreferredTerm>ADNI AVLT - List A Recall 4 Word 12</nciodm:PreferredTerm>
                </EnumeratedItem>
                <EnumeratedItem CodedValue="AVL01064" nciodm:ExtCodeID="C101959">
                    <nciodm:CDISCSynonym>AVL01-List A Recall 4 Word 13</nciodm:CDISCSynonym>
                    <nciodm:CDISCDefinition>Auditory Verbal Learning Test Version A - List A, Recall 4, Word 13.</nciodm:CDISCDefinition>
                    <nciodm:PreferredTerm>ADNI AVLT - List A Recall 4 Word 13</nciodm:PreferredTerm>
                </EnumeratedItem>
                <EnumeratedItem CodedValue="AVL01065" nciodm:ExtCodeID="C101960">
                    <nciodm:CDISCSynonym>AVL01-List A Recall 4 Word 14</nciodm:CDISCSynonym>
                    <nciodm:CDISCDefinition>Auditory Verbal Learning Test Version A - List A, Recall 4, Word 14.</nciodm:CDISCDefinition>
                    <nciodm:PreferredTerm>ADNI AVLT - List A Recall 4 Word 14</nciodm:PreferredTerm>
                </EnumeratedItem>
                <EnumeratedItem CodedValue="AVL01066" nciodm:ExtCodeID="C101961">
                    <nciodm:CDISCSynonym>AVL01-List A Recall 4 Word 15</nciodm:CDISCSynonym>
                    <nciodm:CDISCDefinition>Auditory Verbal Learning Test Version A - List A, Recall 4, Word 15.</nciodm:CDISCDefinition>
                    <nciodm:PreferredTerm>ADNI AVLT - List A Recall 4 Word 15</nciodm:PreferredTerm>
                </EnumeratedItem>
                <EnumeratedItem CodedValue="AVL01067" nciodm:ExtCodeID="C101962">
                    <nciodm:CDISCSynonym>AVL01-List A Recall 4 Total</nciodm:CDISCSynonym>
                    <nciodm:CDISCDefinition>Auditory Verbal Learning Test Version A - The number of words recalled from List A, fourth attempt.</nciodm:CDISCDefinition>
                    <nciodm:PreferredTerm>ADNI AVLT - List A Recall 4 Total</nciodm:PreferredTerm>
                </EnumeratedItem>
                <EnumeratedItem CodedValue="AVL01068" nciodm:ExtCodeID="C101963">
                    <nciodm:CDISCSynonym>AVL01-List A Intrusions 4</nciodm:CDISCSynonym>
                    <nciodm:CDISCDefinition>Auditory Verbal Learning Test Version A - The number of intrusions while recalling List A, fourth attempt.</nciodm:CDISCDefinition>
                    <nciodm:PreferredTerm>ADNI AVLT - List A Intrusions 4</nciodm:PreferredTerm>
                </EnumeratedItem>
                <EnumeratedItem CodedValue="AVL01069" nciodm:ExtCodeID="C101964">
                    <nciodm:CDISCSynonym>AVL01-List A Recall 5 Word 1</nciodm:CDISCSynonym>
                    <nciodm:CDISCDefinition>Auditory Verbal Learning Test Version A - List A, Recall 5, Word 1.</nciodm:CDISCDefinition>
                    <nciodm:PreferredTerm>ADNI AVLT - List A Recall 5 Word 1</nciodm:PreferredTerm>
                </EnumeratedItem>
                <EnumeratedItem CodedValue="AVL01070" nciodm:ExtCodeID="C101965">
                    <nciodm:CDISCSynonym>AVL01-List A Recall 5 Word 2</nciodm:CDISCSynonym>
                    <nciodm:CDISCDefinition>Auditory Verbal Learning Test Version A - List A, Recall 5, Word 2.</nciodm:CDISCDefinition>
                    <nciodm:PreferredTerm>ADNI AVLT - List A Recall 5 Word 2</nciodm:PreferredTerm>
                </EnumeratedItem>
                <EnumeratedItem CodedValue="AVL01071" nciodm:ExtCodeID="C101966">
                    <nciodm:CDISCSynonym>AVL01-List A Recall 5 Word 3</nciodm:CDISCSynonym>
                    <nciodm:CDISCDefinition>Auditory Verbal Learning Test Version A - List A, Recall 5, Word 3.</nciodm:CDISCDefinition>
                    <nciodm:PreferredTerm>ADNI AVLT - List A Recall 5 Word 3</nciodm:PreferredTerm>
                </EnumeratedItem>
                <EnumeratedItem CodedValue="AVL01072" nciodm:ExtCodeID="C101967">
                    <nciodm:CDISCSynonym>AVL01-List A Recall 5 Word 4</nciodm:CDISCSynonym>
                    <nciodm:CDISCDefinition>Auditory Verbal Learning Test Version A - List A, Recall 5, Word 4.</nciodm:CDISCDefinition>
                    <nciodm:PreferredTerm>ADNI AVLT - List A Recall 5 Word 4</nciodm:PreferredTerm>
                </EnumeratedItem>
                <EnumeratedItem CodedValue="AVL01073" nciodm:ExtCodeID="C101968">
                    <nciodm:CDISCSynonym>AVL01-List A Recall 5 Word 5</nciodm:CDISCSynonym>
                    <nciodm:CDISCDefinition>Auditory Verbal Learning Test Version A - List A, Recall 5, Word 5.</nciodm:CDISCDefinition>
                    <nciodm:PreferredTerm>ADNI AVLT - List A Recall 5 Word 5</nciodm:PreferredTerm>
                </EnumeratedItem>
                <EnumeratedItem CodedValue="AVL01074" nciodm:ExtCodeID="C101969">
                    <nciodm:CDISCSynonym>AVL01-List A Recall 5 Word 6</nciodm:CDISCSynonym>
                    <nciodm:CDISCDefinition>Auditory Verbal Learning Test Version A - List A, Recall 5, Word 6.</nciodm:CDISCDefinition>
                    <nciodm:PreferredTerm>ADNI AVLT - List A Recall 5 Word 6</nciodm:PreferredTerm>
                </EnumeratedItem>
                <EnumeratedItem CodedValue="AVL01075" nciodm:ExtCodeID="C101970">
                    <nciodm:CDISCSynonym>AVL01-List A Recall 5 Word 7</nciodm:CDISCSynonym>
                    <nciodm:CDISCDefinition>Auditory Verbal Learning Test Version A - List A, Recall 5, Word 7.</nciodm:CDISCDefinition>
                    <nciodm:PreferredTerm>ADNI AVLT - List A Recall 5 Word 7</nciodm:PreferredTerm>
                </EnumeratedItem>
                <EnumeratedItem CodedValue="AVL01076" nciodm:ExtCodeID="C101971">
                    <nciodm:CDISCSynonym>AVL01-List A Recall 5 Word 8</nciodm:CDISCSynonym>
                    <nciodm:CDISCDefinition>Auditory Verbal Learning Test Version A - List A, Recall 5, Word 8.</nciodm:CDISCDefinition>
                    <nciodm:PreferredTerm>ADNI AVLT - List A Recall 5 Word 8</nciodm:PreferredTerm>
                </EnumeratedItem>
                <EnumeratedItem CodedValue="AVL01077" nciodm:ExtCodeID="C101972">
                    <nciodm:CDISCSynonym>AVL01-List A Recall 5 Word 9</nciodm:CDISCSynonym>
                    <nciodm:CDISCDefinition>Auditory Verbal Learning Test Version A - List A, Recall 5, Word 9.</nciodm:CDISCDefinition>
                    <nciodm:PreferredTerm>ADNI AVLT - List A Recall 5 Word 9</nciodm:PreferredTerm>
                </EnumeratedItem>
                <EnumeratedItem CodedValue="AVL01078" nciodm:ExtCodeID="C101973">
                    <nciodm:CDISCSynonym>AVL01-List A Recall 5 Word 10</nciodm:CDISCSynonym>
                    <nciodm:CDISCDefinition>Auditory Verbal Learning Test Version A - List A, Recall 5, Word 10.</nciodm:CDISCDefinition>
                    <nciodm:PreferredTerm>ADNI AVLT - List A Recall 5 Word 10</nciodm:PreferredTerm>
                </EnumeratedItem>
                <EnumeratedItem CodedValue="AVL01079" nciodm:ExtCodeID="C101974">
                    <nciodm:CDISCSynonym>AVL01-List A Recall 5 Word 11</nciodm:CDISCSynonym>
                    <nciodm:CDISCDefinition>Auditory Verbal Learning Test Version A - List A, Recall 5, Word 11.</nciodm:CDISCDefinition>
                    <nciodm:PreferredTerm>ADNI AVLT - List A Recall 5 Word 11</nciodm:PreferredTerm>
                </EnumeratedItem>
                <EnumeratedItem CodedValue="AVL01080" nciodm:ExtCodeID="C101975">
                    <nciodm:CDISCSynonym>AVL01-List A Recall 5 Word 12</nciodm:CDISCSynonym>
                    <nciodm:CDISCDefinition>Auditory Verbal Learning Test Version A - List A, Recall 5, Word 12.</nciodm:CDISCDefinition>
                    <nciodm:PreferredTerm>ADNI AVLT - List A Recall 5 Word 12</nciodm:PreferredTerm>
                </EnumeratedItem>
                <EnumeratedItem CodedValue="AVL01081" nciodm:ExtCodeID="C101976">
                    <nciodm:CDISCSynonym>AVL01-List A Recall 5 Word 13</nciodm:CDISCSynonym>
                    <nciodm:CDISCDefinition>Auditory Verbal Learning Test Version A - List A, Recall 5, Word 13.</nciodm:CDISCDefinition>
                    <nciodm:PreferredTerm>ADNI AVLT - List A Recall 5 Word 13</nciodm:PreferredTerm>
                </EnumeratedItem>
                <EnumeratedItem CodedValue="AVL01082" nciodm:ExtCodeID="C101977">
                    <nciodm:CDISCSynonym>AVL01-List A Recall 5 Word 14</nciodm:CDISCSynonym>
                    <nciodm:CDISCDefinition>Auditory Verbal Learning Test Version A - List A, Recall 5, Word 14.</nciodm:CDISCDefinition>
                    <nciodm:PreferredTerm>ADNI AVLT - List A Recall 5 Word 14</nciodm:PreferredTerm>
                </EnumeratedItem>
                <EnumeratedItem CodedValue="AVL01083" nciodm:ExtCodeID="C101978">
                    <nciodm:CDISCSynonym>AVL01-List A Recall 5 Word 15</nciodm:CDISCSynonym>
                    <nciodm:CDISCDefinition>Auditory Verbal Learning Test Version A - List A, Recall 5, Word 15.</nciodm:CDISCDefinition>
                    <nciodm:PreferredTerm>ADNI AVLT - List A Recall 5 Word 15</nciodm:PreferredTerm>
                </EnumeratedItem>
                <EnumeratedItem CodedValue="AVL01084" nciodm:ExtCodeID="C101979">
                    <nciodm:CDISCSynonym>AVL01-List A Recall 5 Total</nciodm:CDISCSynonym>
                    <nciodm:CDISCDefinition>Auditory Verbal Learning Test Version A - The number of words recalled from List A, fifth attempt.</nciodm:CDISCDefinition>
                    <nciodm:PreferredTerm>ADNI AVLT - List A Recall 5 Total</nciodm:PreferredTerm>
                </EnumeratedItem>
                <EnumeratedItem CodedValue="AVL01085" nciodm:ExtCodeID="C101980">
                    <nciodm:CDISCSynonym>AVL01-List A Intrusions 5</nciodm:CDISCSynonym>
                    <nciodm:CDISCDefinition>Auditory Verbal Learning Test Version A - The number of intrusions while recalling List A, fifth attempt.</nciodm:CDISCDefinition>
                    <nciodm:PreferredTerm>ADNI AVLT - List A Intrusions 5</nciodm:PreferredTerm>
                </EnumeratedItem>
                <EnumeratedItem CodedValue="AVL01086" nciodm:ExtCodeID="C101981">
                    <nciodm:CDISCSynonym>AVL01-List A Recall 6 (After B) Word 1</nciodm:CDISCSynonym>
                    <nciodm:CDISCDefinition>Auditory Verbal Learning Test Version A - List A, Recall 6 (after B Recall), Word 1.</nciodm:CDISCDefinition>
                    <nciodm:PreferredTerm>ADNI AVLT - List A Recall 6 (After B) Word 1</nciodm:PreferredTerm>
                </EnumeratedItem>
                <EnumeratedItem CodedValue="AVL01087" nciodm:ExtCodeID="C101982">
                    <nciodm:CDISCSynonym>AVL01-List A Recall 6 (After B) Word 2</nciodm:CDISCSynonym>
                    <nciodm:CDISCDefinition>Auditory Verbal Learning Test Version A - List A, Recall 6 (after B Recall), Word 2.</nciodm:CDISCDefinition>
                    <nciodm:PreferredTerm>ADNI AVLT - List A Recall 6 (After B) Word 2</nciodm:PreferredTerm>
                </EnumeratedItem>
                <EnumeratedItem CodedValue="AVL01088" nciodm:ExtCodeID="C101983">
                    <nciodm:CDISCSynonym>AVL01-List A Recall 6 (After B) Word 3</nciodm:CDISCSynonym>
                    <nciodm:CDISCDefinition>Auditory Verbal Learning Test Version A - List A, Recall 6 (after B Recall), Word 3.</nciodm:CDISCDefinition>
                    <nciodm:PreferredTerm>ADNI AVLT - List A Recall 6 (After B) Word 3</nciodm:PreferredTerm>
                </EnumeratedItem>
                <EnumeratedItem CodedValue="AVL01089" nciodm:ExtCodeID="C101984">
                    <nciodm:CDISCSynonym>AVL01-List A Recall 6 (After B) Word 4</nciodm:CDISCSynonym>
                    <nciodm:CDISCDefinition>Auditory Verbal Learning Test Version A - List A, Recall 6 (after B Recall), Word 4.</nciodm:CDISCDefinition>
                    <nciodm:PreferredTerm>ADNI AVLT - List A Recall 6 (After B) Word 4</nciodm:PreferredTerm>
                </EnumeratedItem>
                <EnumeratedItem CodedValue="AVL01090" nciodm:ExtCodeID="C101985">
                    <nciodm:CDISCSynonym>AVL01-List A Recall 6 (After B) Word 5</nciodm:CDISCSynonym>
                    <nciodm:CDISCDefinition>Auditory Verbal Learning Test Version A - List A, Recall 6 (after B Recall), Word 5.</nciodm:CDISCDefinition>
                    <nciodm:PreferredTerm>ADNI AVLT - List A Recall 6 (After B) Word 5</nciodm:PreferredTerm>
                </EnumeratedItem>
                <EnumeratedItem CodedValue="AVL01091" nciodm:ExtCodeID="C101986">
                    <nciodm:CDISCSynonym>AVL01-List A Recall 6 (After B) Word 6</nciodm:CDISCSynonym>
                    <nciodm:CDISCDefinition>Auditory Verbal Learning Test Version A - List A, Recall 6 (after B Recall), Word 6.</nciodm:CDISCDefinition>
                    <nciodm:PreferredTerm>ADNI AVLT - List A Recall 6 (After B) Word 6</nciodm:PreferredTerm>
                </EnumeratedItem>
                <EnumeratedItem CodedValue="AVL01092" nciodm:ExtCodeID="C101987">
                    <nciodm:CDISCSynonym>AVL01-List A Recall 6 (After B) Word 7</nciodm:CDISCSynonym>
                    <nciodm:CDISCDefinition>Auditory Verbal Learning Test Version A - List A, Recall 6 (after B Recall), Word 7.</nciodm:CDISCDefinition>
                    <nciodm:PreferredTerm>ADNI AVLT - List A Recall 6 (After B) Word 7</nciodm:PreferredTerm>
                </EnumeratedItem>
                <EnumeratedItem CodedValue="AVL01093" nciodm:ExtCodeID="C101988">
                    <nciodm:CDISCSynonym>AVL01-List A Recall 6 (After B) Word 8</nciodm:CDISCSynonym>
                    <nciodm:CDISCDefinition>Auditory Verbal Learning Test Version A - List A, Recall 6 (after B Recall), Word 8.</nciodm:CDISCDefinition>
                    <nciodm:PreferredTerm>ADNI AVLT - List A Recall 6 (After B) Word 8</nciodm:PreferredTerm>
                </EnumeratedItem>
                <EnumeratedItem CodedValue="AVL01094" nciodm:ExtCodeID="C101989">
                    <nciodm:CDISCSynonym>AVL01-List A Recall 6 (After B) Word 9</nciodm:CDISCSynonym>
                    <nciodm:CDISCDefinition>Auditory Verbal Learning Test Version A - List A, Recall 6 (after B Recall), Word 9.</nciodm:CDISCDefinition>
                    <nciodm:PreferredTerm>ADNI AVLT - List A Recall 6 (After B) Word 9</nciodm:PreferredTerm>
                </EnumeratedItem>
                <EnumeratedItem CodedValue="AVL01095" nciodm:ExtCodeID="C101990">
                    <nciodm:CDISCSynonym>AVL01-List A Recall 6 (After B) Word 10</nciodm:CDISCSynonym>
                    <nciodm:CDISCDefinition>Auditory Verbal Learning Test Version A - List A, Recall 6 (after B Recall), Word 10.</nciodm:CDISCDefinition>
                    <nciodm:PreferredTerm>ADNI AVLT - List A Recall 6 (After B) Word 10</nciodm:PreferredTerm>
                </EnumeratedItem>
                <EnumeratedItem CodedValue="AVL01096" nciodm:ExtCodeID="C101991">
                    <nciodm:CDISCSynonym>AVL01-List A Recall 6 (After B) Word 11</nciodm:CDISCSynonym>
                    <nciodm:CDISCDefinition>Auditory Verbal Learning Test Version A - List A, Recall 6 (after B Recall), Word 11.</nciodm:CDISCDefinition>
                    <nciodm:PreferredTerm>ADNI AVLT - List A Recall 6 (After B) Word 11</nciodm:PreferredTerm>
                </EnumeratedItem>
                <EnumeratedItem CodedValue="AVL01097" nciodm:ExtCodeID="C101992">
                    <nciodm:CDISCSynonym>AVL01-List A Recall 6 (After B) Word 12</nciodm:CDISCSynonym>
                    <nciodm:CDISCDefinition>Auditory Verbal Learning Test Version A - List A, Recall 6 (after B Recall), Word 12.</nciodm:CDISCDefinition>
                    <nciodm:PreferredTerm>ADNI AVLT - List A Recall 6 (After B) Word 12</nciodm:PreferredTerm>
                </EnumeratedItem>
                <EnumeratedItem CodedValue="AVL01098" nciodm:ExtCodeID="C101993">
                    <nciodm:CDISCSynonym>AVL01-List A Recall 6 (After B) Word 13</nciodm:CDISCSynonym>
                    <nciodm:CDISCDefinition>Auditory Verbal Learning Test Version A - List A, Recall 6 (after B Recall), Word 13.</nciodm:CDISCDefinition>
                    <nciodm:PreferredTerm>ADNI AVLT - List A Recall 6 (After B) Word 13</nciodm:PreferredTerm>
                </EnumeratedItem>
                <EnumeratedItem CodedValue="AVL01099" nciodm:ExtCodeID="C101994">
                    <nciodm:CDISCSynonym>AVL01-List A Recall 6 (After B) Word 14</nciodm:CDISCSynonym>
                    <nciodm:CDISCDefinition>Auditory Verbal Learning Test Version A - List A, Recall 6 (after B Recall), Word 14.</nciodm:CDISCDefinition>
                    <nciodm:PreferredTerm>ADNI AVLT - List A Recall 6 (After B) Word 14</nciodm:PreferredTerm>
                </EnumeratedItem>
                <EnumeratedItem CodedValue="AVL01100" nciodm:ExtCodeID="C101995">
                    <nciodm:CDISCSynonym>AVL01-List A Recall 6 (After B) Word 15</nciodm:CDISCSynonym>
                    <nciodm:CDISCDefinition>Auditory Verbal Learning Test Version A - List A, Recall 6 (after B Recall), Word 15.</nciodm:CDISCDefinition>
                    <nciodm:PreferredTerm>ADNI AVLT - List A Recall 6 (After B) Word 15</nciodm:PreferredTerm>
                </EnumeratedItem>
                <EnumeratedItem CodedValue="AVL01101" nciodm:ExtCodeID="C101996">
                    <nciodm:CDISCSynonym>AVL01-List A Recall 6 (After B) Total</nciodm:CDISCSynonym>
                    <nciodm:CDISCDefinition>Auditory Verbal Learning Test Version A - The number of words recalled from List A, sixth attempt (after List B recall).</nciodm:CDISCDefinition>
                    <nciodm:PreferredTerm>ADNI AVLT - List A Recall 6 (After B) Total</nciodm:PreferredTerm>
                </EnumeratedItem>
                <EnumeratedItem CodedValue="AVL01102" nciodm:ExtCodeID="C101997">
                    <nciodm:CDISCSynonym>AVL01-List A Intrusions 6</nciodm:CDISCSynonym>
                    <nciodm:CDISCDefinition>Auditory Verbal Learning Test Version A - The number of intrusions while recalling List A, sixth attempt (after List B recall).</nciodm:CDISCDefinition>
                    <nciodm:PreferredTerm>ADNI AVLT - List A Intrusions 6</nciodm:PreferredTerm>
                </EnumeratedItem>
                <EnumeratedItem CodedValue="AVL01103" nciodm:ExtCodeID="C101998">
                    <nciodm:CDISCSynonym>AVL01-List B Recall Word 1</nciodm:CDISCSynonym>
                    <nciodm:CDISCDefinition>Auditory Verbal Learning Test Version A - List B, Word 1.</nciodm:CDISCDefinition>
                    <nciodm:PreferredTerm>ADNI AVLT - List B Recall Word 1</nciodm:PreferredTerm>
                </EnumeratedItem>
                <EnumeratedItem CodedValue="AVL01104" nciodm:ExtCodeID="C101999">
                    <nciodm:CDISCSynonym>AVL01-List B Recall Word 2</nciodm:CDISCSynonym>
                    <nciodm:CDISCDefinition>Auditory Verbal Learning Test Version A - List B, Word 2.</nciodm:CDISCDefinition>
                    <nciodm:PreferredTerm>ADNI AVLT - List B Recall Word 2</nciodm:PreferredTerm>
                </EnumeratedItem>
                <EnumeratedItem CodedValue="AVL01105" nciodm:ExtCodeID="C102000">
                    <nciodm:CDISCSynonym>AVL01-List B Recall Word 3</nciodm:CDISCSynonym>
                    <nciodm:CDISCDefinition>Auditory Verbal Learning Test Version A - List B, Word 3.</nciodm:CDISCDefinition>
                    <nciodm:PreferredTerm>ADNI AVLT - List B Recall Word 3</nciodm:PreferredTerm>
                </EnumeratedItem>
                <EnumeratedItem CodedValue="AVL01106" nciodm:ExtCodeID="C102001">
                    <nciodm:CDISCSynonym>AVL01-List B Recall Word 4</nciodm:CDISCSynonym>
                    <nciodm:CDISCDefinition>Auditory Verbal Learning Test Version A - List B, Word 4.</nciodm:CDISCDefinition>
                    <nciodm:PreferredTerm>ADNI AVLT - List B Recall Word 4</nciodm:PreferredTerm>
                </EnumeratedItem>
                <EnumeratedItem CodedValue="AVL01107" nciodm:ExtCodeID="C102002">
                    <nciodm:CDISCSynonym>AVL01-List B Recall Word 5</nciodm:CDISCSynonym>
                    <nciodm:CDISCDefinition>Auditory Verbal Learning Test Version A - List B, Word 5.</nciodm:CDISCDefinition>
                    <nciodm:PreferredTerm>ADNI AVLT - List B Recall Word 5</nciodm:PreferredTerm>
                </EnumeratedItem>
                <EnumeratedItem CodedValue="AVL01108" nciodm:ExtCodeID="C102003">
                    <nciodm:CDISCSynonym>AVL01-List B Recall Word 6</nciodm:CDISCSynonym>
                    <nciodm:CDISCDefinition>Auditory Verbal Learning Test Version A - List B, Word 6.</nciodm:CDISCDefinition>
                    <nciodm:PreferredTerm>ADNI AVLT - List B Recall Word 6</nciodm:PreferredTerm>
                </EnumeratedItem>
                <EnumeratedItem CodedValue="AVL01109" nciodm:ExtCodeID="C102004">
                    <nciodm:CDISCSynonym>AVL01-List B Recall Word 7</nciodm:CDISCSynonym>
                    <nciodm:CDISCDefinition>Auditory Verbal Learning Test Version A - List B, Word 7.</nciodm:CDISCDefinition>
                    <nciodm:PreferredTerm>ADNI AVLT - List B Recall Word 7</nciodm:PreferredTerm>
                </EnumeratedItem>
                <EnumeratedItem CodedValue="AVL01110" nciodm:ExtCodeID="C102005">
                    <nciodm:CDISCSynonym>AVL01-List B Recall Word 8</nciodm:CDISCSynonym>
                    <nciodm:CDISCDefinition>Auditory Verbal Learning Test Version A - List B, Word 8.</nciodm:CDISCDefinition>
                    <nciodm:PreferredTerm>ADNI AVLT - List B Recall Word 8</nciodm:PreferredTerm>
                </EnumeratedItem>
                <EnumeratedItem CodedValue="AVL01111" nciodm:ExtCodeID="C102006">
                    <nciodm:CDISCSynonym>AVL01-List B Recall Word 9</nciodm:CDISCSynonym>
                    <nciodm:CDISCDefinition>Auditory Verbal Learning Test Version A - List B, Word 9.</nciodm:CDISCDefinition>
                    <nciodm:PreferredTerm>ADNI AVLT - List B Recall Word 9</nciodm:PreferredTerm>
                </EnumeratedItem>
                <EnumeratedItem CodedValue="AVL01112" nciodm:ExtCodeID="C102007">
                    <nciodm:CDISCSynonym>AVL01-List B Recall Word 10</nciodm:CDISCSynonym>
                    <nciodm:CDISCDefinition>Auditory Verbal Learning Test Version A - List B, Word 10.</nciodm:CDISCDefinition>
                    <nciodm:PreferredTerm>ADNI AVLT - List B Recall Word 10</nciodm:PreferredTerm>
                </EnumeratedItem>
                <EnumeratedItem CodedValue="AVL01113" nciodm:ExtCodeID="C102008">
                    <nciodm:CDISCSynonym>AVL01-List B Recall Word 11</nciodm:CDISCSynonym>
                    <nciodm:CDISCDefinition>Auditory Verbal Learning Test Version A - List B, Word 11.</nciodm:CDISCDefinition>
                    <nciodm:PreferredTerm>ADNI AVLT - List B Recall Word 11</nciodm:PreferredTerm>
                </EnumeratedItem>
                <EnumeratedItem CodedValue="AVL01114" nciodm:ExtCodeID="C102009">
                    <nciodm:CDISCSynonym>AVL01-List B Recall Word 12</nciodm:CDISCSynonym>
                    <nciodm:CDISCDefinition>Auditory Verbal Learning Test Version A - List B, Word 12.</nciodm:CDISCDefinition>
                    <nciodm:PreferredTerm>ADNI AVLT - List B Recall Word 12</nciodm:PreferredTerm>
                </EnumeratedItem>
                <EnumeratedItem CodedValue="AVL01115" nciodm:ExtCodeID="C102010">
                    <nciodm:CDISCSynonym>AVL01-List B Recall Word 13</nciodm:CDISCSynonym>
                    <nciodm:CDISCDefinition>Auditory Verbal Learning Test Version A - List B, Word 13.</nciodm:CDISCDefinition>
                    <nciodm:PreferredTerm>ADNI AVLT - List B Recall Word 13</nciodm:PreferredTerm>
                </EnumeratedItem>
                <EnumeratedItem CodedValue="AVL01116" nciodm:ExtCodeID="C102011">
                    <nciodm:CDISCSynonym>AVL01-List B Recall Word 14</nciodm:CDISCSynonym>
                    <nciodm:CDISCDefinition>Auditory Verbal Learning Test Version A - List B, Word 14.</nciodm:CDISCDefinition>
                    <nciodm:PreferredTerm>ADNI AVLT - List B Recall Word 14</nciodm:PreferredTerm>
                </EnumeratedItem>
                <EnumeratedItem CodedValue="AVL01117" nciodm:ExtCodeID="C102012">
                    <nciodm:CDISCSynonym>AVL01-List B Recall Word 15</nciodm:CDISCSynonym>
                    <nciodm:CDISCDefinition>Auditory Verbal Learning Test Version A - List B, Word 15.</nciodm:CDISCDefinition>
                    <nciodm:PreferredTerm>ADNI AVLT - List B Recall Word 15</nciodm:PreferredTerm>
                </EnumeratedItem>
                <EnumeratedItem CodedValue="AVL01118" nciodm:ExtCodeID="C102013">
                    <nciodm:CDISCSynonym>AVL01-List B Recall Total</nciodm:CDISCSynonym>
                    <nciodm:CDISCDefinition>Auditory Verbal Learning Test Version A - The number of words recalled from List B.</nciodm:CDISCDefinition>
                    <nciodm:PreferredTerm>ADNI AVLT - List B Recall Total</nciodm:PreferredTerm>
                </EnumeratedItem>
                <EnumeratedItem CodedValue="AVL01119" nciodm:ExtCodeID="C102014">
                    <nciodm:CDISCSynonym>AVL01-List B Intrusions</nciodm:CDISCSynonym>
                    <nciodm:CDISCDefinition>Auditory Verbal Learning Test Version A - The number of intrusions while recalling List B.</nciodm:CDISCDefinition>
                    <nciodm:PreferredTerm>ADNI AVLT - List B Intrusions</nciodm:PreferredTerm>
                </EnumeratedItem>
                <EnumeratedItem CodedValue="AVL01120" nciodm:ExtCodeID="C102015">
                    <nciodm:CDISCSynonym>AVL01-List A 30 Min Delay Recall Word 1</nciodm:CDISCSynonym>
                    <nciodm:CDISCDefinition>Auditory Verbal Learning Test Version A - List A, 30 Minute Delay Recall, Word 1.</nciodm:CDISCDefinition>
                    <nciodm:PreferredTerm>ADNI AVLT - List A 30 Min Delay Recall Word 1</nciodm:PreferredTerm>
                </EnumeratedItem>
                <EnumeratedItem CodedValue="AVL01121" nciodm:ExtCodeID="C102016">
                    <nciodm:CDISCSynonym>AVL01-List A 30 Min Delay Recall Word 2</nciodm:CDISCSynonym>
                    <nciodm:CDISCDefinition>Auditory Verbal Learning Test Version A - List A, 30 Minute Delay Recall, Word 2.</nciodm:CDISCDefinition>
                    <nciodm:PreferredTerm>ADNI AVLT - List A 30 Min Delay Recall Word 2</nciodm:PreferredTerm>
                </EnumeratedItem>
                <EnumeratedItem CodedValue="AVL01122" nciodm:ExtCodeID="C102017">
                    <nciodm:CDISCSynonym>AVL01-List A 30 Min Delay Recall Word 3</nciodm:CDISCSynonym>
                    <nciodm:CDISCDefinition>Auditory Verbal Learning Test Version A - List A, 30 Minute Delay Recall, Word 3.</nciodm:CDISCDefinition>
                    <nciodm:PreferredTerm>ADNI AVLT - List A 30 Min Delay Recall Word 3</nciodm:PreferredTerm>
                </EnumeratedItem>
                <EnumeratedItem CodedValue="AVL01123" nciodm:ExtCodeID="C102018">
                    <nciodm:CDISCSynonym>AVL01-List A 30 Min Delay Recall Word 4</nciodm:CDISCSynonym>
                    <nciodm:CDISCDefinition>Auditory Verbal Learning Test Version A - List A, 30 Minute Delay Recall, Word 4.</nciodm:CDISCDefinition>
                    <nciodm:PreferredTerm>ADNI AVLT - List A 30 Min Delay Recall Word 4</nciodm:PreferredTerm>
                </EnumeratedItem>
                <EnumeratedItem CodedValue="AVL01124" nciodm:ExtCodeID="C102019">
                    <nciodm:CDISCSynonym>AVL01-List A 30 Min Delay Recall Word 5</nciodm:CDISCSynonym>
                    <nciodm:CDISCDefinition>Auditory Verbal Learning Test Version A - List A, 30 Minute Delay Recall, Word 5.</nciodm:CDISCDefinition>
                    <nciodm:PreferredTerm>ADNI AVLT - List A 30 Min Delay Recall Word 5</nciodm:PreferredTerm>
                </EnumeratedItem>
                <EnumeratedItem CodedValue="AVL01125" nciodm:ExtCodeID="C102020">
                    <nciodm:CDISCSynonym>AVL01-List A 30 Min Delay Recall Word 6</nciodm:CDISCSynonym>
                    <nciodm:CDISCDefinition>Auditory Verbal Learning Test Version A - List A, 30 Minute Delay Recall, Word 6.</nciodm:CDISCDefinition>
                    <nciodm:PreferredTerm>ADNI AVLT - List A 30 Min Delay Recall Word 6</nciodm:PreferredTerm>
                </EnumeratedItem>
                <EnumeratedItem CodedValue="AVL01126" nciodm:ExtCodeID="C102021">
                    <nciodm:CDISCSynonym>AVL01-List A 30 Min Delay Recall Word 7</nciodm:CDISCSynonym>
                    <nciodm:CDISCDefinition>Auditory Verbal Learning Test Version A - List A, 30 Minute Delay Recall, Word 7.</nciodm:CDISCDefinition>
                    <nciodm:PreferredTerm>ADNI AVLT - List A 30 Min Delay Recall Word 7</nciodm:PreferredTerm>
                </EnumeratedItem>
                <EnumeratedItem CodedValue="AVL01127" nciodm:ExtCodeID="C102022">
                    <nciodm:CDISCSynonym>AVL01-List A 30 Min Delay Recall Word 8</nciodm:CDISCSynonym>
                    <nciodm:CDISCDefinition>Auditory Verbal Learning Test Version A - List A, 30 Minute Delay Recall, Word 8.</nciodm:CDISCDefinition>
                    <nciodm:PreferredTerm>ADNI AVLT - List A 30 Min Delay Recall Word 8</nciodm:PreferredTerm>
                </EnumeratedItem>
                <EnumeratedItem CodedValue="AVL01128" nciodm:ExtCodeID="C102023">
                    <nciodm:CDISCSynonym>AVL01-List A 30 Min Delay Recall Word 9</nciodm:CDISCSynonym>
                    <nciodm:CDISCDefinition>Auditory Verbal Learning Test Version A - List A, 30 Minute Delay Recall, Word 9.</nciodm:CDISCDefinition>
                    <nciodm:PreferredTerm>ADNI AVLT - List A 30 Min Delay Recall Word 9</nciodm:PreferredTerm>
                </EnumeratedItem>
                <EnumeratedItem CodedValue="AVL01129" nciodm:ExtCodeID="C102024">
                    <nciodm:CDISCSynonym>AVL01-List A 30 Min Delay Recall Word 10</nciodm:CDISCSynonym>
                    <nciodm:CDISCDefinition>Auditory Verbal Learning Test Version A - List A, 30 Minute Delay Recall, Word 10.</nciodm:CDISCDefinition>
                    <nciodm:PreferredTerm>ADNI AVLT - List A 30 Min Delay Recall Word 10</nciodm:PreferredTerm>
                </EnumeratedItem>
                <EnumeratedItem CodedValue="AVL01130" nciodm:ExtCodeID="C102025">
                    <nciodm:CDISCSynonym>AVL01-List A 30 Min Delay Recall Word 11</nciodm:CDISCSynonym>
                    <nciodm:CDISCDefinition>Auditory Verbal Learning Test Version A - List A, 30 Minute Delay Recall, Word 11.</nciodm:CDISCDefinition>
                    <nciodm:PreferredTerm>ADNI AVLT - List A 30 Min Delay Recall Word 11</nciodm:PreferredTerm>
                </EnumeratedItem>
                <EnumeratedItem CodedValue="AVL01131" nciodm:ExtCodeID="C102026">
                    <nciodm:CDISCSynonym>AVL01-List A 30 Min Delay Recall Word 12</nciodm:CDISCSynonym>
                    <nciodm:CDISCDefinition>Auditory Verbal Learning Test Version A - List A, 30 Minute Delay Recall, Word 12.</nciodm:CDISCDefinition>
                    <nciodm:PreferredTerm>ADNI AVLT - List A 30 Min Delay Recall Word 12</nciodm:PreferredTerm>
                </EnumeratedItem>
                <EnumeratedItem CodedValue="AVL01132" nciodm:ExtCodeID="C102027">
                    <nciodm:CDISCSynonym>AVL01-List A 30 Min Delay Recall Word 13</nciodm:CDISCSynonym>
                    <nciodm:CDISCDefinition>Auditory Verbal Learning Test Version A - List A, 30 Minute Delay Recall, Word 13.</nciodm:CDISCDefinition>
                    <nciodm:PreferredTerm>ADNI AVLT - List A 30 Min Delay Recall Word 13</nciodm:PreferredTerm>
                </EnumeratedItem>
                <EnumeratedItem CodedValue="AVL01133" nciodm:ExtCodeID="C102028">
                    <nciodm:CDISCSynonym>AVL01-List A 30 Min Delay Recall Word 14</nciodm:CDISCSynonym>
                    <nciodm:CDISCDefinition>Auditory Verbal Learning Test Version A - List A, 30 Minute Delay Recall, Word 14.</nciodm:CDISCDefinition>
                    <nciodm:PreferredTerm>ADNI AVLT - List A 30 Min Delay Recall Word 14</nciodm:PreferredTerm>
                </EnumeratedItem>
                <EnumeratedItem CodedValue="AVL01134" nciodm:ExtCodeID="C102029">
                    <nciodm:CDISCSynonym>AVL01-List A 30 Min Delay Recall Word 15</nciodm:CDISCSynonym>
                    <nciodm:CDISCDefinition>Auditory Verbal Learning Test Version A - List A, 30 Minute Delay Recall, Word 15.</nciodm:CDISCDefinition>
                    <nciodm:PreferredTerm>ADNI AVLT - List A 30 Min Delay Recall Word 15</nciodm:PreferredTerm>
                </EnumeratedItem>
                <EnumeratedItem CodedValue="AVL01135" nciodm:ExtCodeID="C102030">
                    <nciodm:CDISCSynonym>AVL01-List A 30 Min Delay Recall Total</nciodm:CDISCSynonym>
                    <nciodm:CDISCDefinition>Auditory Verbal Learning Test Version A - The number of words recalled from List A, 30 Minute Delay recall.</nciodm:CDISCDefinition>
                    <nciodm:PreferredTerm>ADNI AVLT - List A 30 Min Delay Recall Total</nciodm:PreferredTerm>
                </EnumeratedItem>
                <EnumeratedItem CodedValue="AVL01136" nciodm:ExtCodeID="C102031">
                    <nciodm:CDISCSynonym>AVL01-List A 30 Min Delay Intrusions</nciodm:CDISCSynonym>
                    <nciodm:CDISCDefinition>Auditory Verbal Learning Test Version A - The number of intrusions while recalling List A, 30 Minute Delay.</nciodm:CDISCDefinition>
                    <nciodm:PreferredTerm>ADNI AVLT - List A 30 Min Delay Intrusions</nciodm:PreferredTerm>
                </EnumeratedItem>
                <EnumeratedItem CodedValue="AVL01137" nciodm:ExtCodeID="C102032">
                    <nciodm:CDISCSynonym>AVL01-List A Recognition Total</nciodm:CDISCSynonym>
                    <nciodm:CDISCDefinition>Auditory Verbal Learning Test Version A - The number of words correct on recognition test.</nciodm:CDISCDefinition>
                    <nciodm:PreferredTerm>ADNI AVLT - List A Recognition Total</nciodm:PreferredTerm>
                </EnumeratedItem>
                <EnumeratedItem CodedValue="AVL01138" nciodm:ExtCodeID="C102033">
                    <nciodm:CDISCSynonym>AVL01-List A Recognition Intrusions</nciodm:CDISCSynonym>
                    <nciodm:CDISCDefinition>Auditory Verbal Learning Test Version A - The number of intrusions on recognition test.</nciodm:CDISCDefinition>
                    <nciodm:PreferredTerm>ADNI AVLT - List A Recognition Intrusions</nciodm:PreferredTerm>
                </EnumeratedItem>
                <nciodm:CDISCSubmissionValue>AVLT TESTCD</nciodm:CDISCSubmissionValue>
                <nciodm:CDISCSynonym>ADNI AVLT Test Code</nciodm:CDISCSynonym>
                <nciodm:PreferredTerm>CDISC Questionnaire ADNI AVLT Test Code Terminology</nciodm:PreferredTerm>
            </CodeList>
            <CodeList OID="CL.C101808.AVLT TEST" Name="ADNI AVLT Test Name" DataType="text" nciodm:ExtCodeID="C101808" nciodm:CodeListExtensible="No">
                <Description>
                    <TranslatedText xml:lang="en">ADNI AVLT test name.</TranslatedText>
                </Description>
                <EnumeratedItem CodedValue="AVL01-List A 30 Min Delay Intrusions" nciodm:ExtCodeID="C102031">
                    <nciodm:CDISCSynonym>AVL01-List A 30 Min Delay Intrusions</nciodm:CDISCSynonym>
                    <nciodm:CDISCDefinition>Auditory Verbal Learning Test Version A - The number of intrusions while recalling List A, 30 Minute Delay.</nciodm:CDISCDefinition>
                    <nciodm:PreferredTerm>ADNI AVLT - List A 30 Min Delay Intrusions</nciodm:PreferredTerm>
                </EnumeratedItem>
                <EnumeratedItem CodedValue="AVL01-List A 30 Min Delay Recall Total" nciodm:ExtCodeID="C102030">
                    <nciodm:CDISCSynonym>AVL01-List A 30 Min Delay Recall Total</nciodm:CDISCSynonym>
                    <nciodm:CDISCDefinition>Auditory Verbal Learning Test Version A - The number of words recalled from List A, 30 Minute Delay recall.</nciodm:CDISCDefinition>
                    <nciodm:PreferredTerm>ADNI AVLT - List A 30 Min Delay Recall Total</nciodm:PreferredTerm>
                </EnumeratedItem>
                <EnumeratedItem CodedValue="AVL01-List A 30 Min Delay Recall Word 1" nciodm:ExtCodeID="C102015">
                    <nciodm:CDISCSynonym>AVL01-List A 30 Min Delay Recall Word 1</nciodm:CDISCSynonym>
                    <nciodm:CDISCDefinition>Auditory Verbal Learning Test Version A - List A, 30 Minute Delay Recall, Word 1.</nciodm:CDISCDefinition>
                    <nciodm:PreferredTerm>ADNI AVLT - List A 30 Min Delay Recall Word 1</nciodm:PreferredTerm>
                </EnumeratedItem>
                <EnumeratedItem CodedValue="AVL01-List A 30 Min Delay Recall Word 10" nciodm:ExtCodeID="C102024">
                    <nciodm:CDISCSynonym>AVL01-List A 30 Min Delay Recall Word 10</nciodm:CDISCSynonym>
                    <nciodm:CDISCDefinition>Auditory Verbal Learning Test Version A - List A, 30 Minute Delay Recall, Word 10.</nciodm:CDISCDefinition>
                    <nciodm:PreferredTerm>ADNI AVLT - List A 30 Min Delay Recall Word 10</nciodm:PreferredTerm>
                </EnumeratedItem>
                <EnumeratedItem CodedValue="AVL01-List A 30 Min Delay Recall Word 11" nciodm:ExtCodeID="C102025">
                    <nciodm:CDISCSynonym>AVL01-List A 30 Min Delay Recall Word 11</nciodm:CDISCSynonym>
                    <nciodm:CDISCDefinition>Auditory Verbal Learning Test Version A - List A, 30 Minute Delay Recall, Word 11.</nciodm:CDISCDefinition>
                    <nciodm:PreferredTerm>ADNI AVLT - List A 30 Min Delay Recall Word 11</nciodm:PreferredTerm>
                </EnumeratedItem>
                <EnumeratedItem CodedValue="AVL01-List A 30 Min Delay Recall Word 12" nciodm:ExtCodeID="C102026">
                    <nciodm:CDISCSynonym>AVL01-List A 30 Min Delay Recall Word 12</nciodm:CDISCSynonym>
                    <nciodm:CDISCDefinition>Auditory Verbal Learning Test Version A - List A, 30 Minute Delay Recall, Word 12.</nciodm:CDISCDefinition>
                    <nciodm:PreferredTerm>ADNI AVLT - List A 30 Min Delay Recall Word 12</nciodm:PreferredTerm>
                </EnumeratedItem>
                <EnumeratedItem CodedValue="AVL01-List A 30 Min Delay Recall Word 13" nciodm:ExtCodeID="C102027">
                    <nciodm:CDISCSynonym>AVL01-List A 30 Min Delay Recall Word 13</nciodm:CDISCSynonym>
                    <nciodm:CDISCDefinition>Auditory Verbal Learning Test Version A - List A, 30 Minute Delay Recall, Word 13.</nciodm:CDISCDefinition>
                    <nciodm:PreferredTerm>ADNI AVLT - List A 30 Min Delay Recall Word 13</nciodm:PreferredTerm>
                </EnumeratedItem>
                <EnumeratedItem CodedValue="AVL01-List A 30 Min Delay Recall Word 14" nciodm:ExtCodeID="C102028">
                    <nciodm:CDISCSynonym>AVL01-List A 30 Min Delay Recall Word 14</nciodm:CDISCSynonym>
                    <nciodm:CDISCDefinition>Auditory Verbal Learning Test Version A - List A, 30 Minute Delay Recall, Word 14.</nciodm:CDISCDefinition>
                    <nciodm:PreferredTerm>ADNI AVLT - List A 30 Min Delay Recall Word 14</nciodm:PreferredTerm>
                </EnumeratedItem>
                <EnumeratedItem CodedValue="AVL01-List A 30 Min Delay Recall Word 15" nciodm:ExtCodeID="C102029">
                    <nciodm:CDISCSynonym>AVL01-List A 30 Min Delay Recall Word 15</nciodm:CDISCSynonym>
                    <nciodm:CDISCDefinition>Auditory Verbal Learning Test Version A - List A, 30 Minute Delay Recall, Word 15.</nciodm:CDISCDefinition>
                    <nciodm:PreferredTerm>ADNI AVLT - List A 30 Min Delay Recall Word 15</nciodm:PreferredTerm>
                </EnumeratedItem>
                <EnumeratedItem CodedValue="AVL01-List A 30 Min Delay Recall Word 2" nciodm:ExtCodeID="C102016">
                    <nciodm:CDISCSynonym>AVL01-List A 30 Min Delay Recall Word 2</nciodm:CDISCSynonym>
                    <nciodm:CDISCDefinition>Auditory Verbal Learning Test Version A - List A, 30 Minute Delay Recall, Word 2.</nciodm:CDISCDefinition>
                    <nciodm:PreferredTerm>ADNI AVLT - List A 30 Min Delay Recall Word 2</nciodm:PreferredTerm>
                </EnumeratedItem>
                <EnumeratedItem CodedValue="AVL01-List A 30 Min Delay Recall Word 3" nciodm:ExtCodeID="C102017">
                    <nciodm:CDISCSynonym>AVL01-List A 30 Min Delay Recall Word 3</nciodm:CDISCSynonym>
                    <nciodm:CDISCDefinition>Auditory Verbal Learning Test Version A - List A, 30 Minute Delay Recall, Word 3.</nciodm:CDISCDefinition>
                    <nciodm:PreferredTerm>ADNI AVLT - List A 30 Min Delay Recall Word 3</nciodm:PreferredTerm>
                </EnumeratedItem>
                <EnumeratedItem CodedValue="AVL01-List A 30 Min Delay Recall Word 4" nciodm:ExtCodeID="C102018">
                    <nciodm:CDISCSynonym>AVL01-List A 30 Min Delay Recall Word 4</nciodm:CDISCSynonym>
                    <nciodm:CDISCDefinition>Auditory Verbal Learning Test Version A - List A, 30 Minute Delay Recall, Word 4.</nciodm:CDISCDefinition>
                    <nciodm:PreferredTerm>ADNI AVLT - List A 30 Min Delay Recall Word 4</nciodm:PreferredTerm>
                </EnumeratedItem>
                <EnumeratedItem CodedValue="AVL01-List A 30 Min Delay Recall Word 5" nciodm:ExtCodeID="C102019">
                    <nciodm:CDISCSynonym>AVL01-List A 30 Min Delay Recall Word 5</nciodm:CDISCSynonym>
                    <nciodm:CDISCDefinition>Auditory Verbal Learning Test Version A - List A, 30 Minute Delay Recall, Word 5.</nciodm:CDISCDefinition>
                    <nciodm:PreferredTerm>ADNI AVLT - List A 30 Min Delay Recall Word 5</nciodm:PreferredTerm>
                </EnumeratedItem>
                <EnumeratedItem CodedValue="AVL01-List A 30 Min Delay Recall Word 6" nciodm:ExtCodeID="C102020">
                    <nciodm:CDISCSynonym>AVL01-List A 30 Min Delay Recall Word 6</nciodm:CDISCSynonym>
                    <nciodm:CDISCDefinition>Auditory Verbal Learning Test Version A - List A, 30 Minute Delay Recall, Word 6.</nciodm:CDISCDefinition>
                    <nciodm:PreferredTerm>ADNI AVLT - List A 30 Min Delay Recall Word 6</nciodm:PreferredTerm>
                </EnumeratedItem>
                <EnumeratedItem CodedValue="AVL01-List A 30 Min Delay Recall Word 7" nciodm:ExtCodeID="C102021">
                    <nciodm:CDISCSynonym>AVL01-List A 30 Min Delay Recall Word 7</nciodm:CDISCSynonym>
                    <nciodm:CDISCDefinition>Auditory Verbal Learning Test Version A - List A, 30 Minute Delay Recall, Word 7.</nciodm:CDISCDefinition>
                    <nciodm:PreferredTerm>ADNI AVLT - List A 30 Min Delay Recall Word 7</nciodm:PreferredTerm>
                </EnumeratedItem>
                <EnumeratedItem CodedValue="AVL01-List A 30 Min Delay Recall Word 8" nciodm:ExtCodeID="C102022">
                    <nciodm:CDISCSynonym>AVL01-List A 30 Min Delay Recall Word 8</nciodm:CDISCSynonym>
                    <nciodm:CDISCDefinition>Auditory Verbal Learning Test Version A - List A, 30 Minute Delay Recall, Word 8.</nciodm:CDISCDefinition>
                    <nciodm:PreferredTerm>ADNI AVLT - List A 30 Min Delay Recall Word 8</nciodm:PreferredTerm>
                </EnumeratedItem>
                <EnumeratedItem CodedValue="AVL01-List A 30 Min Delay Recall Word 9" nciodm:ExtCodeID="C102023">
                    <nciodm:CDISCSynonym>AVL01-List A 30 Min Delay Recall Word 9</nciodm:CDISCSynonym>
                    <nciodm:CDISCDefinition>Auditory Verbal Learning Test Version A - List A, 30 Minute Delay Recall, Word 9.</nciodm:CDISCDefinition>
                    <nciodm:PreferredTerm>ADNI AVLT - List A 30 Min Delay Recall Word 9</nciodm:PreferredTerm>
                </EnumeratedItem>
                <EnumeratedItem CodedValue="AVL01-List A Intrusions 1" nciodm:ExtCodeID="C101912">
                    <nciodm:CDISCSynonym>AVL01-List A Intrusions 1</nciodm:CDISCSynonym>
                    <nciodm:CDISCDefinition>Auditory Verbal Learning Test Version A - The number of intrusions while recalling List A, first attempt.</nciodm:CDISCDefinition>
                    <nciodm:PreferredTerm>ADNI AVLT - List A Intrusions 1</nciodm:PreferredTerm>
                </EnumeratedItem>
                <EnumeratedItem CodedValue="AVL01-List A Intrusions 2" nciodm:ExtCodeID="C101929">
                    <nciodm:CDISCSynonym>AVL01-List A Intrusions 2</nciodm:CDISCSynonym>
                    <nciodm:CDISCDefinition>Auditory Verbal Learning Test Version A - The number of intrusions while recalling List A, second attempt.</nciodm:CDISCDefinition>
                    <nciodm:PreferredTerm>ADNI AVLT - List A Intrusions 2</nciodm:PreferredTerm>
                </EnumeratedItem>
                <EnumeratedItem CodedValue="AVL01-List A Intrusions 3" nciodm:ExtCodeID="C101946">
                    <nciodm:CDISCSynonym>AVL01-List A Intrusions 3</nciodm:CDISCSynonym>
                    <nciodm:CDISCDefinition>Auditory Verbal Learning Test Version A - The number of intrusions while recalling List A, third attempt.</nciodm:CDISCDefinition>
                    <nciodm:PreferredTerm>ADNI AVLT - List A Intrusions 3</nciodm:PreferredTerm>
                </EnumeratedItem>
                <EnumeratedItem CodedValue="AVL01-List A Intrusions 4" nciodm:ExtCodeID="C101963">
                    <nciodm:CDISCSynonym>AVL01-List A Intrusions 4</nciodm:CDISCSynonym>
                    <nciodm:CDISCDefinition>Auditory Verbal Learning Test Version A - The number of intrusions while recalling List A, fourth attempt.</nciodm:CDISCDefinition>
                    <nciodm:PreferredTerm>ADNI AVLT - List A Intrusions 4</nciodm:PreferredTerm>
                </EnumeratedItem>
                <EnumeratedItem CodedValue="AVL01-List A Intrusions 5" nciodm:ExtCodeID="C101980">
                    <nciodm:CDISCSynonym>AVL01-List A Intrusions 5</nciodm:CDISCSynonym>
                    <nciodm:CDISCDefinition>Auditory Verbal Learning Test Version A - The number of intrusions while recalling List A, fifth attempt.</nciodm:CDISCDefinition>
                    <nciodm:PreferredTerm>ADNI AVLT - List A Intrusions 5</nciodm:PreferredTerm>
                </EnumeratedItem>
                <EnumeratedItem CodedValue="AVL01-List A Intrusions 6" nciodm:ExtCodeID="C101997">
                    <nciodm:CDISCSynonym>AVL01-List A Intrusions 6</nciodm:CDISCSynonym>
                    <nciodm:CDISCDefinition>Auditory Verbal Learning Test Version A - The number of intrusions while recalling List A, sixth attempt (after List B recall).</nciodm:CDISCDefinition>
                    <nciodm:PreferredTerm>ADNI AVLT - List A Intrusions 6</nciodm:PreferredTerm>
                </EnumeratedItem>
                <EnumeratedItem CodedValue="AVL01-List A Recall 1 Total" nciodm:ExtCodeID="C101911">
                    <nciodm:CDISCSynonym>AVL01-List A Recall 1 Total</nciodm:CDISCSynonym>
                    <nciodm:CDISCDefinition>Auditory Verbal Learning Test Version A - The number of words recalled from List A, first attempt.</nciodm:CDISCDefinition>
                    <nciodm:PreferredTerm>ADNI AVLT - List A Recall 1 Total</nciodm:PreferredTerm>
                </EnumeratedItem>
                <EnumeratedItem CodedValue="AVL01-List A Recall 1 Word 1" nciodm:ExtCodeID="C101896">
                    <nciodm:CDISCSynonym>AVL01-List A Recall 1 Word 1</nciodm:CDISCSynonym>
                    <nciodm:CDISCDefinition>Auditory Verbal Learning Test Version A - List A, Recall 1, Word 1.</nciodm:CDISCDefinition>
                    <nciodm:PreferredTerm>ADNI AVLT - List A Recall 1 Word 1</nciodm:PreferredTerm>
                </EnumeratedItem>
                <EnumeratedItem CodedValue="AVL01-List A Recall 1 Word 10" nciodm:ExtCodeID="C101905">
                    <nciodm:CDISCSynonym>AVL01-List A Recall 1 Word 10</nciodm:CDISCSynonym>
                    <nciodm:CDISCDefinition>Auditory Verbal Learning Test Version A - List A, Recall 1, Word 10.</nciodm:CDISCDefinition>
                    <nciodm:PreferredTerm>ADNI AVLT - List A Recall 1 Word 10</nciodm:PreferredTerm>
                </EnumeratedItem>
                <EnumeratedItem CodedValue="AVL01-List A Recall 1 Word 11" nciodm:ExtCodeID="C101906">
                    <nciodm:CDISCSynonym>AVL01-List A Recall 1 Word 11</nciodm:CDISCSynonym>
                    <nciodm:CDISCDefinition>Auditory Verbal Learning Test Version A - List A, Recall 1, Word 11.</nciodm:CDISCDefinition>
                    <nciodm:PreferredTerm>ADNI AVLT - List A Recall 1 Word 11</nciodm:PreferredTerm>
                </EnumeratedItem>
                <EnumeratedItem CodedValue="AVL01-List A Recall 1 Word 12" nciodm:ExtCodeID="C101907">
                    <nciodm:CDISCSynonym>AVL01-List A Recall 1 Word 12</nciodm:CDISCSynonym>
                    <nciodm:CDISCDefinition>Auditory Verbal Learning Test Version A - List A, Recall 1, Word 12.</nciodm:CDISCDefinition>
                    <nciodm:PreferredTerm>ADNI AVLT - List A Recall 1 Word 12</nciodm:PreferredTerm>
                </EnumeratedItem>
                <EnumeratedItem CodedValue="AVL01-List A Recall 1 Word 13" nciodm:ExtCodeID="C101908">
                    <nciodm:CDISCSynonym>AVL01-List A Recall 1 Word 13</nciodm:CDISCSynonym>
                    <nciodm:CDISCDefinition>Auditory Verbal Learning Test Version A - List A, Recall 1, Word 13.</nciodm:CDISCDefinition>
                    <nciodm:PreferredTerm>ADNI AVLT - List A Recall 1 Word 13</nciodm:PreferredTerm>
                </EnumeratedItem>
                <EnumeratedItem CodedValue="AVL01-List A Recall 1 Word 14" nciodm:ExtCodeID="C101909">
                    <nciodm:CDISCSynonym>AVL01-List A Recall 1 Word 14</nciodm:CDISCSynonym>
                    <nciodm:CDISCDefinition>Auditory Verbal Learning Test Version A - List A, Recall 1, Word 14.</nciodm:CDISCDefinition>
                    <nciodm:PreferredTerm>ADNI AVLT - List A Recall 1 Word 14</nciodm:PreferredTerm>
                </EnumeratedItem>
                <EnumeratedItem CodedValue="AVL01-List A Recall 1 Word 15" nciodm:ExtCodeID="C101910">
                    <nciodm:CDISCSynonym>AVL01-List A Recall 1 Word 15</nciodm:CDISCSynonym>
                    <nciodm:CDISCDefinition>Auditory Verbal Learning Test Version A - List A, Recall 1, Word 15.</nciodm:CDISCDefinition>
                    <nciodm:PreferredTerm>ADNI AVLT - List A Recall 1 Word 15</nciodm:PreferredTerm>
                </EnumeratedItem>
                <EnumeratedItem CodedValue="AVL01-List A Recall 1 Word 2" nciodm:ExtCodeID="C101897">
                    <nciodm:CDISCSynonym>AVL01-List A Recall 1 Word 2</nciodm:CDISCSynonym>
                    <nciodm:CDISCDefinition>Auditory Verbal Learning Test Version A - List A, Recall 1, Word 2.</nciodm:CDISCDefinition>
                    <nciodm:PreferredTerm>ADNI AVLT - List A Recall 1 Word 2</nciodm:PreferredTerm>
                </EnumeratedItem>
                <EnumeratedItem CodedValue="AVL01-List A Recall 1 Word 3" nciodm:ExtCodeID="C101898">
                    <nciodm:CDISCSynonym>AVL01-List A Recall 1 Word 3</nciodm:CDISCSynonym>
                    <nciodm:CDISCDefinition>Auditory Verbal Learning Test Version A - List A, Recall 1, Word 3.</nciodm:CDISCDefinition>
                    <nciodm:PreferredTerm>ADNI AVLT - List A Recall 1 Word 3</nciodm:PreferredTerm>
                </EnumeratedItem>
                <EnumeratedItem CodedValue="AVL01-List A Recall 1 Word 4" nciodm:ExtCodeID="C101899">
                    <nciodm:CDISCSynonym>AVL01-List A Recall 1 Word 4</nciodm:CDISCSynonym>
                    <nciodm:CDISCDefinition>Auditory Verbal Learning Test Version A - List A, Recall 1, Word 4.</nciodm:CDISCDefinition>
                    <nciodm:PreferredTerm>ADNI AVLT - List A Recall 1 Word 4</nciodm:PreferredTerm>
                </EnumeratedItem>
                <EnumeratedItem CodedValue="AVL01-List A Recall 1 Word 5" nciodm:ExtCodeID="C101900">
                    <nciodm:CDISCSynonym>AVL01-List A Recall 1 Word 5</nciodm:CDISCSynonym>
                    <nciodm:CDISCDefinition>Auditory Verbal Learning Test Version A - List A, Recall 1, Word 5.</nciodm:CDISCDefinition>
                    <nciodm:PreferredTerm>ADNI AVLT - List A Recall 1 Word 5</nciodm:PreferredTerm>
                </EnumeratedItem>
                <EnumeratedItem CodedValue="AVL01-List A Recall 1 Word 6" nciodm:ExtCodeID="C101901">
                    <nciodm:CDISCSynonym>AVL01-List A Recall 1 Word 6</nciodm:CDISCSynonym>
                    <nciodm:CDISCDefinition>Auditory Verbal Learning Test Version A - List A, Recall 1, Word 6.</nciodm:CDISCDefinition>
                    <nciodm:PreferredTerm>ADNI AVLT - List A Recall 1 Word 6</nciodm:PreferredTerm>
                </EnumeratedItem>
                <EnumeratedItem CodedValue="AVL01-List A Recall 1 Word 7" nciodm:ExtCodeID="C101902">
                    <nciodm:CDISCSynonym>AVL01-List A Recall 1 Word 7</nciodm:CDISCSynonym>
                    <nciodm:CDISCDefinition>Auditory Verbal Learning Test Version A - List A, Recall 1, Word 7.</nciodm:CDISCDefinition>
                    <nciodm:PreferredTerm>ADNI AVLT - List A Recall 1 Word 7</nciodm:PreferredTerm>
                </EnumeratedItem>
                <EnumeratedItem CodedValue="AVL01-List A Recall 1 Word 8" nciodm:ExtCodeID="C101903">
                    <nciodm:CDISCSynonym>AVL01-List A Recall 1 Word 8</nciodm:CDISCSynonym>
                    <nciodm:CDISCDefinition>Auditory Verbal Learning Test Version A - List A, Recall 1, Word 8.</nciodm:CDISCDefinition>
                    <nciodm:PreferredTerm>ADNI AVLT - List A Recall 1 Word 8</nciodm:PreferredTerm>
                </EnumeratedItem>
                <EnumeratedItem CodedValue="AVL01-List A Recall 1 Word 9" nciodm:ExtCodeID="C101904">
                    <nciodm:CDISCSynonym>AVL01-List A Recall 1 Word 9</nciodm:CDISCSynonym>
                    <nciodm:CDISCDefinition>Auditory Verbal Learning Test Version A - List A, Recall 1, Word 9.</nciodm:CDISCDefinition>
                    <nciodm:PreferredTerm>ADNI AVLT - List A Recall 1 Word 9</nciodm:PreferredTerm>
                </EnumeratedItem>
                <EnumeratedItem CodedValue="AVL01-List A Recall 2 Total" nciodm:ExtCodeID="C101928">
                    <nciodm:CDISCSynonym>AVL01-List A Recall 2 Total</nciodm:CDISCSynonym>
                    <nciodm:CDISCDefinition>Auditory Verbal Learning Test Version A - The number of words recalled from List A, second attempt.</nciodm:CDISCDefinition>
                    <nciodm:PreferredTerm>ADNI AVLT - List A Recall 2 Total</nciodm:PreferredTerm>
                </EnumeratedItem>
                <EnumeratedItem CodedValue="AVL01-List A Recall 2 Word 1" nciodm:ExtCodeID="C101913">
                    <nciodm:CDISCSynonym>AVL01-List A Recall 2 Word 1</nciodm:CDISCSynonym>
                    <nciodm:CDISCDefinition>Auditory Verbal Learning Test Version A - List A, Recall 2, Word 1.</nciodm:CDISCDefinition>
                    <nciodm:PreferredTerm>ADNI AVLT - List A Recall 2 Word 1</nciodm:PreferredTerm>
                </EnumeratedItem>
                <EnumeratedItem CodedValue="AVL01-List A Recall 2 Word 10" nciodm:ExtCodeID="C101922">
                    <nciodm:CDISCSynonym>AVL01-List A Recall 2 Word 10</nciodm:CDISCSynonym>
                    <nciodm:CDISCDefinition>Auditory Verbal Learning Test Version A - List A, Recall 2, Word 10.</nciodm:CDISCDefinition>
                    <nciodm:PreferredTerm>ADNI AVLT - List A Recall 2 Word 10</nciodm:PreferredTerm>
                </EnumeratedItem>
                <EnumeratedItem CodedValue="AVL01-List A Recall 2 Word 11" nciodm:ExtCodeID="C101923">
                    <nciodm:CDISCSynonym>AVL01-List A Recall 2 Word 11</nciodm:CDISCSynonym>
                    <nciodm:CDISCDefinition>Auditory Verbal Learning Test Version A - List A, Recall 2, Word 11.</nciodm:CDISCDefinition>
                    <nciodm:PreferredTerm>ADNI AVLT - List A Recall 2 Word 11</nciodm:PreferredTerm>
                </EnumeratedItem>
                <EnumeratedItem CodedValue="AVL01-List A Recall 2 Word 12" nciodm:ExtCodeID="C101924">
                    <nciodm:CDISCSynonym>AVL01-List A Recall 2 Word 12</nciodm:CDISCSynonym>
                    <nciodm:CDISCDefinition>Auditory Verbal Learning Test Version A - List A, Recall 2, Word 12.</nciodm:CDISCDefinition>
                    <nciodm:PreferredTerm>ADNI AVLT - List A Recall 2 Word 12</nciodm:PreferredTerm>
                </EnumeratedItem>
                <EnumeratedItem CodedValue="AVL01-List A Recall 2 Word 13" nciodm:ExtCodeID="C101925">
                    <nciodm:CDISCSynonym>AVL01-List A Recall 2 Word 13</nciodm:CDISCSynonym>
                    <nciodm:CDISCDefinition>Auditory Verbal Learning Test Version A - List A, Recall 2, Word 13.</nciodm:CDISCDefinition>
                    <nciodm:PreferredTerm>ADNI AVLT - List A Recall 2 Word 13</nciodm:PreferredTerm>
                </EnumeratedItem>
                <EnumeratedItem CodedValue="AVL01-List A Recall 2 Word 14" nciodm:ExtCodeID="C101926">
                    <nciodm:CDISCSynonym>AVL01-List A Recall 2 Word 14</nciodm:CDISCSynonym>
                    <nciodm:CDISCDefinition>Auditory Verbal Learning Test Version A - List A, Recall 2, Word 14.</nciodm:CDISCDefinition>
                    <nciodm:PreferredTerm>ADNI AVLT - List A Recall 2 Word 14</nciodm:PreferredTerm>
                </EnumeratedItem>
                <EnumeratedItem CodedValue="AVL01-List A Recall 2 Word 15" nciodm:ExtCodeID="C101927">
                    <nciodm:CDISCSynonym>AVL01-List A Recall 2 Word 15</nciodm:CDISCSynonym>
                    <nciodm:CDISCDefinition>Auditory Verbal Learning Test Version A - List A, Recall 2, Word 15.</nciodm:CDISCDefinition>
                    <nciodm:PreferredTerm>ADNI AVLT - List A Recall 2 Word 15</nciodm:PreferredTerm>
                </EnumeratedItem>
                <EnumeratedItem CodedValue="AVL01-List A Recall 2 Word 2" nciodm:ExtCodeID="C101914">
                    <nciodm:CDISCSynonym>AVL01-List A Recall 2 Word 2</nciodm:CDISCSynonym>
                    <nciodm:CDISCDefinition>Auditory Verbal Learning Test Version A - List A, Recall 2, Word 2.</nciodm:CDISCDefinition>
                    <nciodm:PreferredTerm>ADNI AVLT - List A Recall 2 Word 2</nciodm:PreferredTerm>
                </EnumeratedItem>
                <EnumeratedItem CodedValue="AVL01-List A Recall 2 Word 3" nciodm:ExtCodeID="C101915">
                    <nciodm:CDISCSynonym>AVL01-List A Recall 2 Word 3</nciodm:CDISCSynonym>
                    <nciodm:CDISCDefinition>Auditory Verbal Learning Test Version A - List A, Recall 2, Word 3.</nciodm:CDISCDefinition>
                    <nciodm:PreferredTerm>ADNI AVLT - List A Recall 2 Word 3</nciodm:PreferredTerm>
                </EnumeratedItem>
                <EnumeratedItem CodedValue="AVL01-List A Recall 2 Word 4" nciodm:ExtCodeID="C101916">
                    <nciodm:CDISCSynonym>AVL01-List A Recall 2 Word 4</nciodm:CDISCSynonym>
                    <nciodm:CDISCDefinition>Auditory Verbal Learning Test Version A - List A, Recall 2, Word 4.</nciodm:CDISCDefinition>
                    <nciodm:PreferredTerm>ADNI AVLT - List A Recall 2 Word 4</nciodm:PreferredTerm>
                </EnumeratedItem>
                <EnumeratedItem CodedValue="AVL01-List A Recall 2 Word 5" nciodm:ExtCodeID="C101917">
                    <nciodm:CDISCSynonym>AVL01-List A Recall 2 Word 5</nciodm:CDISCSynonym>
                    <nciodm:CDISCDefinition>Auditory Verbal Learning Test Version A - List A, Recall 2, Word 5.</nciodm:CDISCDefinition>
                    <nciodm:PreferredTerm>ADNI AVLT - List A Recall 2 Word 5</nciodm:PreferredTerm>
                </EnumeratedItem>
                <EnumeratedItem CodedValue="AVL01-List A Recall 2 Word 6" nciodm:ExtCodeID="C101918">
                    <nciodm:CDISCSynonym>AVL01-List A Recall 2 Word 6</nciodm:CDISCSynonym>
                    <nciodm:CDISCDefinition>Auditory Verbal Learning Test Version A - List A, Recall 2, Word 6.</nciodm:CDISCDefinition>
                    <nciodm:PreferredTerm>ADNI AVLT - List A Recall 2 Word 6</nciodm:PreferredTerm>
                </EnumeratedItem>
                <EnumeratedItem CodedValue="AVL01-List A Recall 2 Word 7" nciodm:ExtCodeID="C101919">
                    <nciodm:CDISCSynonym>AVL01-List A Recall 2 Word 7</nciodm:CDISCSynonym>
                    <nciodm:CDISCDefinition>Auditory Verbal Learning Test Version A - List A, Recall 2, Word 7.</nciodm:CDISCDefinition>
                    <nciodm:PreferredTerm>ADNI AVLT - List A Recall 2 Word 7</nciodm:PreferredTerm>
                </EnumeratedItem>
                <EnumeratedItem CodedValue="AVL01-List A Recall 2 Word 8" nciodm:ExtCodeID="C101920">
                    <nciodm:CDISCSynonym>AVL01-List A Recall 2 Word 8</nciodm:CDISCSynonym>
                    <nciodm:CDISCDefinition>Auditory Verbal Learning Test Version A - List A, Recall 2, Word 8.</nciodm:CDISCDefinition>
                    <nciodm:PreferredTerm>ADNI AVLT - List A Recall 2 Word 8</nciodm:PreferredTerm>
                </EnumeratedItem>
                <EnumeratedItem CodedValue="AVL01-List A Recall 2 Word 9" nciodm:ExtCodeID="C101921">
                    <nciodm:CDISCSynonym>AVL01-List A Recall 2 Word 9</nciodm:CDISCSynonym>
                    <nciodm:CDISCDefinition>Auditory Verbal Learning Test Version A - List A, Recall 2, Word 9.</nciodm:CDISCDefinition>
                    <nciodm:PreferredTerm>ADNI AVLT - List A Recall 2 Word 9</nciodm:PreferredTerm>
                </EnumeratedItem>
                <EnumeratedItem CodedValue="AVL01-List A Recall 3 Total" nciodm:ExtCodeID="C101945">
                    <nciodm:CDISCSynonym>AVL01-List A Recall 3 Total</nciodm:CDISCSynonym>
                    <nciodm:CDISCDefinition>Auditory Verbal Learning Test Version A - The number of words recalled from List A, third attempt.</nciodm:CDISCDefinition>
                    <nciodm:PreferredTerm>ADNI AVLT - List A Recall 3 Total</nciodm:PreferredTerm>
                </EnumeratedItem>
                <EnumeratedItem CodedValue="AVL01-List A Recall 3 Word 1" nciodm:ExtCodeID="C101930">
                    <nciodm:CDISCSynonym>AVL01-List A Recall 3 Word 1</nciodm:CDISCSynonym>
                    <nciodm:CDISCDefinition>Auditory Verbal Learning Test Version A - List A, Recall 3, Word 1.</nciodm:CDISCDefinition>
                    <nciodm:PreferredTerm>ADNI AVLT - List A Recall 3 Word 1</nciodm:PreferredTerm>
                </EnumeratedItem>
                <EnumeratedItem CodedValue="AVL01-List A Recall 3 Word 10" nciodm:ExtCodeID="C101939">
                    <nciodm:CDISCSynonym>AVL01-List A Recall 3 Word 10</nciodm:CDISCSynonym>
                    <nciodm:CDISCDefinition>Auditory Verbal Learning Test Version A - List A, Recall 3, Word 10.</nciodm:CDISCDefinition>
                    <nciodm:PreferredTerm>ADNI AVLT - List A Recall 3 Word 10</nciodm:PreferredTerm>
                </EnumeratedItem>
                <EnumeratedItem CodedValue="AVL01-List A Recall 3 Word 11" nciodm:ExtCodeID="C101940">
                    <nciodm:CDISCSynonym>AVL01-List A Recall 3 Word 11</nciodm:CDISCSynonym>
                    <nciodm:CDISCDefinition>Auditory Verbal Learning Test Version A - List A, Recall 3, Word 11.</nciodm:CDISCDefinition>
                    <nciodm:PreferredTerm>ADNI AVLT - List A Recall 3 Word 11</nciodm:PreferredTerm>
                </EnumeratedItem>
                <EnumeratedItem CodedValue="AVL01-List A Recall 3 Word 12" nciodm:ExtCodeID="C101941">
                    <nciodm:CDISCSynonym>AVL01-List A Recall 3 Word 12</nciodm:CDISCSynonym>
                    <nciodm:CDISCDefinition>Auditory Verbal Learning Test Version A - List A, Recall 3, Word 12.</nciodm:CDISCDefinition>
                    <nciodm:PreferredTerm>ADNI AVLT - List A Recall 3 Word 12</nciodm:PreferredTerm>
                </EnumeratedItem>
                <EnumeratedItem CodedValue="AVL01-List A Recall 3 Word 13" nciodm:ExtCodeID="C101942">
                    <nciodm:CDISCSynonym>AVL01-List A Recall 3 Word 13</nciodm:CDISCSynonym>
                    <nciodm:CDISCDefinition>Auditory Verbal Learning Test Version A - List A, Recall 3, Word 13.</nciodm:CDISCDefinition>
                    <nciodm:PreferredTerm>ADNI AVLT - List A Recall 3 Word 13</nciodm:PreferredTerm>
                </EnumeratedItem>
                <EnumeratedItem CodedValue="AVL01-List A Recall 3 Word 14" nciodm:ExtCodeID="C101943">
                    <nciodm:CDISCSynonym>AVL01-List A Recall 3 Word 14</nciodm:CDISCSynonym>
                    <nciodm:CDISCDefinition>Auditory Verbal Learning Test Version A - List A, Recall 3, Word 14.</nciodm:CDISCDefinition>
                    <nciodm:PreferredTerm>ADNI AVLT - List A Recall 3 Word 14</nciodm:PreferredTerm>
                </EnumeratedItem>
                <EnumeratedItem CodedValue="AVL01-List A Recall 3 Word 15" nciodm:ExtCodeID="C101944">
                    <nciodm:CDISCSynonym>AVL01-List A Recall 3 Word 15</nciodm:CDISCSynonym>
                    <nciodm:CDISCDefinition>Auditory Verbal Learning Test Version A - List A, Recall 3, Word 15.</nciodm:CDISCDefinition>
                    <nciodm:PreferredTerm>ADNI AVLT - List A Recall 3 Word 15</nciodm:PreferredTerm>
                </EnumeratedItem>
                <EnumeratedItem CodedValue="AVL01-List A Recall 3 Word 2" nciodm:ExtCodeID="C101931">
                    <nciodm:CDISCSynonym>AVL01-List A Recall 3 Word 2</nciodm:CDISCSynonym>
                    <nciodm:CDISCDefinition>Auditory Verbal Learning Test Version A - List A, Recall 3, Word 2.</nciodm:CDISCDefinition>
                    <nciodm:PreferredTerm>ADNI AVLT - List A Recall 3 Word 2</nciodm:PreferredTerm>
                </EnumeratedItem>
                <EnumeratedItem CodedValue="AVL01-List A Recall 3 Word 3" nciodm:ExtCodeID="C101932">
                    <nciodm:CDISCSynonym>AVL01-List A Recall 3 Word 3</nciodm:CDISCSynonym>
                    <nciodm:CDISCDefinition>Auditory Verbal Learning Test Version A - List A, Recall 3, Word 3.</nciodm:CDISCDefinition>
                    <nciodm:PreferredTerm>ADNI AVLT - List A Recall 3 Word 3</nciodm:PreferredTerm>
                </EnumeratedItem>
                <EnumeratedItem CodedValue="AVL01-List A Recall 3 Word 4" nciodm:ExtCodeID="C101933">
                    <nciodm:CDISCSynonym>AVL01-List A Recall 3 Word 4</nciodm:CDISCSynonym>
                    <nciodm:CDISCDefinition>Auditory Verbal Learning Test Version A - List A, Recall 3, Word 4.</nciodm:CDISCDefinition>
                    <nciodm:PreferredTerm>ADNI AVLT - List A Recall 3 Word 4</nciodm:PreferredTerm>
                </EnumeratedItem>
                <EnumeratedItem CodedValue="AVL01-List A Recall 3 Word 5" nciodm:ExtCodeID="C101934">
                    <nciodm:CDISCSynonym>AVL01-List A Recall 3 Word 5</nciodm:CDISCSynonym>
                    <nciodm:CDISCDefinition>Auditory Verbal Learning Test Version A - List A, Recall 3, Word 5.</nciodm:CDISCDefinition>
                    <nciodm:PreferredTerm>ADNI AVLT - List A Recall 3 Word 5</nciodm:PreferredTerm>
                </EnumeratedItem>
                <EnumeratedItem CodedValue="AVL01-List A Recall 3 Word 6" nciodm:ExtCodeID="C101935">
                    <nciodm:CDISCSynonym>AVL01-List A Recall 3 Word 6</nciodm:CDISCSynonym>
                    <nciodm:CDISCDefinition>Auditory Verbal Learning Test Version A - List A, Recall 3, Word 6.</nciodm:CDISCDefinition>
                    <nciodm:PreferredTerm>ADNI AVLT - List A Recall 3 Word 6</nciodm:PreferredTerm>
                </EnumeratedItem>
                <EnumeratedItem CodedValue="AVL01-List A Recall 3 Word 7" nciodm:ExtCodeID="C101936">
                    <nciodm:CDISCSynonym>AVL01-List A Recall 3 Word 7</nciodm:CDISCSynonym>
                    <nciodm:CDISCDefinition>Auditory Verbal Learning Test Version A - List A, Recall 3, Word 7.</nciodm:CDISCDefinition>
                    <nciodm:PreferredTerm>ADNI AVLT - List A Recall 3 Word 7</nciodm:PreferredTerm>
                </EnumeratedItem>
                <EnumeratedItem CodedValue="AVL01-List A Recall 3 Word 8" nciodm:ExtCodeID="C101937">
                    <nciodm:CDISCSynonym>AVL01-List A Recall 3 Word 8</nciodm:CDISCSynonym>
                    <nciodm:CDISCDefinition>Auditory Verbal Learning Test Version A - List A, Recall 3, Word 8.</nciodm:CDISCDefinition>
                    <nciodm:PreferredTerm>ADNI AVLT - List A Recall 3 Word 8</nciodm:PreferredTerm>
                </EnumeratedItem>
                <EnumeratedItem CodedValue="AVL01-List A Recall 3 Word 9" nciodm:ExtCodeID="C101938">
                    <nciodm:CDISCSynonym>AVL01-List A Recall 3 Word 9</nciodm:CDISCSynonym>
                    <nciodm:CDISCDefinition>Auditory Verbal Learning Test Version A - List A, Recall 3, Word 9.</nciodm:CDISCDefinition>
                    <nciodm:PreferredTerm>ADNI AVLT - List A Recall 3 Word 9</nciodm:PreferredTerm>
                </EnumeratedItem>
                <EnumeratedItem CodedValue="AVL01-List A Recall 4 Total" nciodm:ExtCodeID="C101962">
                    <nciodm:CDISCSynonym>AVL01-List A Recall 4 Total</nciodm:CDISCSynonym>
                    <nciodm:CDISCDefinition>Auditory Verbal Learning Test Version A - The number of words recalled from List A, fourth attempt.</nciodm:CDISCDefinition>
                    <nciodm:PreferredTerm>ADNI AVLT - List A Recall 4 Total</nciodm:PreferredTerm>
                </EnumeratedItem>
                <EnumeratedItem CodedValue="AVL01-List A Recall 4 Word 1" nciodm:ExtCodeID="C101947">
                    <nciodm:CDISCSynonym>AVL01-List A Recall 4 Word 1</nciodm:CDISCSynonym>
                    <nciodm:CDISCDefinition>Auditory Verbal Learning Test Version A - List A, Recall 4, Word 1.</nciodm:CDISCDefinition>
                    <nciodm:PreferredTerm>ADNI AVLT - List A Recall 4 Word 1</nciodm:PreferredTerm>
                </EnumeratedItem>
                <EnumeratedItem CodedValue="AVL01-List A Recall 4 Word 10" nciodm:ExtCodeID="C101956">
                    <nciodm:CDISCSynonym>AVL01-List A Recall 4 Word 10</nciodm:CDISCSynonym>
                    <nciodm:CDISCDefinition>Auditory Verbal Learning Test Version A - List A, Recall 4, Word 10.</nciodm:CDISCDefinition>
                    <nciodm:PreferredTerm>ADNI AVLT - List A Recall 4 Word 10</nciodm:PreferredTerm>
                </EnumeratedItem>
                <EnumeratedItem CodedValue="AVL01-List A Recall 4 Word 11" nciodm:ExtCodeID="C101957">
                    <nciodm:CDISCSynonym>AVL01-List A Recall 4 Word 11</nciodm:CDISCSynonym>
                    <nciodm:CDISCDefinition>Auditory Verbal Learning Test Version A - List A, Recall 4, Word 11.</nciodm:CDISCDefinition>
                    <nciodm:PreferredTerm>ADNI AVLT - List A Recall 4 Word 11</nciodm:PreferredTerm>
                </EnumeratedItem>
                <EnumeratedItem CodedValue="AVL01-List A Recall 4 Word 12" nciodm:ExtCodeID="C101958">
                    <nciodm:CDISCSynonym>AVL01-List A Recall 4 Word 12</nciodm:CDISCSynonym>
                    <nciodm:CDISCDefinition>Auditory Verbal Learning Test Version A - List A, Recall 4, Word 12.</nciodm:CDISCDefinition>
                    <nciodm:PreferredTerm>ADNI AVLT - List A Recall 4 Word 12</nciodm:PreferredTerm>
                </EnumeratedItem>
                <EnumeratedItem CodedValue="AVL01-List A Recall 4 Word 13" nciodm:ExtCodeID="C101959">
                    <nciodm:CDISCSynonym>AVL01-List A Recall 4 Word 13</nciodm:CDISCSynonym>
                    <nciodm:CDISCDefinition>Auditory Verbal Learning Test Version A - List A, Recall 4, Word 13.</nciodm:CDISCDefinition>
                    <nciodm:PreferredTerm>ADNI AVLT - List A Recall 4 Word 13</nciodm:PreferredTerm>
                </EnumeratedItem>
                <EnumeratedItem CodedValue="AVL01-List A Recall 4 Word 14" nciodm:ExtCodeID="C101960">
                    <nciodm:CDISCSynonym>AVL01-List A Recall 4 Word 14</nciodm:CDISCSynonym>
                    <nciodm:CDISCDefinition>Auditory Verbal Learning Test Version A - List A, Recall 4, Word 14.</nciodm:CDISCDefinition>
                    <nciodm:PreferredTerm>ADNI AVLT - List A Recall 4 Word 14</nciodm:PreferredTerm>
                </EnumeratedItem>
                <EnumeratedItem CodedValue="AVL01-List A Recall 4 Word 15" nciodm:ExtCodeID="C101961">
                    <nciodm:CDISCSynonym>AVL01-List A Recall 4 Word 15</nciodm:CDISCSynonym>
                    <nciodm:CDISCDefinition>Auditory Verbal Learning Test Version A - List A, Recall 4, Word 15.</nciodm:CDISCDefinition>
                    <nciodm:PreferredTerm>ADNI AVLT - List A Recall 4 Word 15</nciodm:PreferredTerm>
                </EnumeratedItem>
                <EnumeratedItem CodedValue="AVL01-List A Recall 4 Word 2" nciodm:ExtCodeID="C101948">
                    <nciodm:CDISCSynonym>AVL01-List A Recall 4 Word 2</nciodm:CDISCSynonym>
                    <nciodm:CDISCDefinition>Auditory Verbal Learning Test Version A - List A, Recall 4, Word 2.</nciodm:CDISCDefinition>
                    <nciodm:PreferredTerm>ADNI AVLT - List A Recall 4 Word 2</nciodm:PreferredTerm>
                </EnumeratedItem>
                <EnumeratedItem CodedValue="AVL01-List A Recall 4 Word 3" nciodm:ExtCodeID="C101949">
                    <nciodm:CDISCSynonym>AVL01-List A Recall 4 Word 3</nciodm:CDISCSynonym>
                    <nciodm:CDISCDefinition>Auditory Verbal Learning Test Version A - List A, Recall 4, Word 3.</nciodm:CDISCDefinition>
                    <nciodm:PreferredTerm>ADNI AVLT - List A Recall 4 Word 3</nciodm:PreferredTerm>
                </EnumeratedItem>
                <EnumeratedItem CodedValue="AVL01-List A Recall 4 Word 4" nciodm:ExtCodeID="C101950">
                    <nciodm:CDISCSynonym>AVL01-List A Recall 4 Word 4</nciodm:CDISCSynonym>
                    <nciodm:CDISCDefinition>Auditory Verbal Learning Test Version A - List A, Recall 4, Word 4.</nciodm:CDISCDefinition>
                    <nciodm:PreferredTerm>ADNI AVLT - List A Recall 4 Word 4</nciodm:PreferredTerm>
                </EnumeratedItem>
                <EnumeratedItem CodedValue="AVL01-List A Recall 4 Word 5" nciodm:ExtCodeID="C101951">
                    <nciodm:CDISCSynonym>AVL01-List A Recall 4 Word 5</nciodm:CDISCSynonym>
                    <nciodm:CDISCDefinition>Auditory Verbal Learning Test Version A - List A, Recall 4, Word 5.</nciodm:CDISCDefinition>
                    <nciodm:PreferredTerm>ADNI AVLT - List A Recall 4 Word 5</nciodm:PreferredTerm>
                </EnumeratedItem>
                <EnumeratedItem CodedValue="AVL01-List A Recall 4 Word 6" nciodm:ExtCodeID="C101952">
                    <nciodm:CDISCSynonym>AVL01-List A Recall 4 Word 6</nciodm:CDISCSynonym>
                    <nciodm:CDISCDefinition>Auditory Verbal Learning Test Version A - List A, Recall 4, Word 6.</nciodm:CDISCDefinition>
                    <nciodm:PreferredTerm>ADNI AVLT - List A Recall 4 Word 6</nciodm:PreferredTerm>
                </EnumeratedItem>
                <EnumeratedItem CodedValue="AVL01-List A Recall 4 Word 7" nciodm:ExtCodeID="C101953">
                    <nciodm:CDISCSynonym>AVL01-List A Recall 4 Word 7</nciodm:CDISCSynonym>
                    <nciodm:CDISCDefinition>Auditory Verbal Learning Test Version A - List A, Recall 4, Word 7.</nciodm:CDISCDefinition>
                    <nciodm:PreferredTerm>ADNI AVLT - List A Recall 4 Word 7</nciodm:PreferredTerm>
                </EnumeratedItem>
                <EnumeratedItem CodedValue="AVL01-List A Recall 4 Word 8" nciodm:ExtCodeID="C101954">
                    <nciodm:CDISCSynonym>AVL01-List A Recall 4 Word 8</nciodm:CDISCSynonym>
                    <nciodm:CDISCDefinition>Auditory Verbal Learning Test Version A - List A, Recall 4, Word 8.</nciodm:CDISCDefinition>
                    <nciodm:PreferredTerm>ADNI AVLT - List A Recall 4 Word 8</nciodm:PreferredTerm>
                </EnumeratedItem>
                <EnumeratedItem CodedValue="AVL01-List A Recall 4 Word 9" nciodm:ExtCodeID="C101955">
                    <nciodm:CDISCSynonym>AVL01-List A Recall 4 Word 9</nciodm:CDISCSynonym>
                    <nciodm:CDISCDefinition>Auditory Verbal Learning Test Version A - List A, Recall 4, Word 9.</nciodm:CDISCDefinition>
                    <nciodm:PreferredTerm>ADNI AVLT - List A Recall 4 Word 9</nciodm:PreferredTerm>
                </EnumeratedItem>
                <EnumeratedItem CodedValue="AVL01-List A Recall 5 Total" nciodm:ExtCodeID="C101979">
                    <nciodm:CDISCSynonym>AVL01-List A Recall 5 Total</nciodm:CDISCSynonym>
                    <nciodm:CDISCDefinition>Auditory Verbal Learning Test Version A - The number of words recalled from List A, fifth attempt.</nciodm:CDISCDefinition>
                    <nciodm:PreferredTerm>ADNI AVLT - List A Recall 5 Total</nciodm:PreferredTerm>
                </EnumeratedItem>
                <EnumeratedItem CodedValue="AVL01-List A Recall 5 Word 1" nciodm:ExtCodeID="C101964">
                    <nciodm:CDISCSynonym>AVL01-List A Recall 5 Word 1</nciodm:CDISCSynonym>
                    <nciodm:CDISCDefinition>Auditory Verbal Learning Test Version A - List A, Recall 5, Word 1.</nciodm:CDISCDefinition>
                    <nciodm:PreferredTerm>ADNI AVLT - List A Recall 5 Word 1</nciodm:PreferredTerm>
                </EnumeratedItem>
                <EnumeratedItem CodedValue="AVL01-List A Recall 5 Word 10" nciodm:ExtCodeID="C101973">
                    <nciodm:CDISCSynonym>AVL01-List A Recall 5 Word 10</nciodm:CDISCSynonym>
                    <nciodm:CDISCDefinition>Auditory Verbal Learning Test Version A - List A, Recall 5, Word 10.</nciodm:CDISCDefinition>
                    <nciodm:PreferredTerm>ADNI AVLT - List A Recall 5 Word 10</nciodm:PreferredTerm>
                </EnumeratedItem>
                <EnumeratedItem CodedValue="AVL01-List A Recall 5 Word 11" nciodm:ExtCodeID="C101974">
                    <nciodm:CDISCSynonym>AVL01-List A Recall 5 Word 11</nciodm:CDISCSynonym>
                    <nciodm:CDISCDefinition>Auditory Verbal Learning Test Version A - List A, Recall 5, Word 11.</nciodm:CDISCDefinition>
                    <nciodm:PreferredTerm>ADNI AVLT - List A Recall 5 Word 11</nciodm:PreferredTerm>
                </EnumeratedItem>
                <EnumeratedItem CodedValue="AVL01-List A Recall 5 Word 12" nciodm:ExtCodeID="C101975">
                    <nciodm:CDISCSynonym>AVL01-List A Recall 5 Word 12</nciodm:CDISCSynonym>
                    <nciodm:CDISCDefinition>Auditory Verbal Learning Test Version A - List A, Recall 5, Word 12.</nciodm:CDISCDefinition>
                    <nciodm:PreferredTerm>ADNI AVLT - List A Recall 5 Word 12</nciodm:PreferredTerm>
                </EnumeratedItem>
                <EnumeratedItem CodedValue="AVL01-List A Recall 5 Word 13" nciodm:ExtCodeID="C101976">
                    <nciodm:CDISCSynonym>AVL01-List A Recall 5 Word 13</nciodm:CDISCSynonym>
                    <nciodm:CDISCDefinition>Auditory Verbal Learning Test Version A - List A, Recall 5, Word 13.</nciodm:CDISCDefinition>
                    <nciodm:PreferredTerm>ADNI AVLT - List A Recall 5 Word 13</nciodm:PreferredTerm>
                </EnumeratedItem>
                <EnumeratedItem CodedValue="AVL01-List A Recall 5 Word 14" nciodm:ExtCodeID="C101977">
                    <nciodm:CDISCSynonym>AVL01-List A Recall 5 Word 14</nciodm:CDISCSynonym>
                    <nciodm:CDISCDefinition>Auditory Verbal Learning Test Version A - List A, Recall 5, Word 14.</nciodm:CDISCDefinition>
                    <nciodm:PreferredTerm>ADNI AVLT - List A Recall 5 Word 14</nciodm:PreferredTerm>
                </EnumeratedItem>
                <EnumeratedItem CodedValue="AVL01-List A Recall 5 Word 15" nciodm:ExtCodeID="C101978">
                    <nciodm:CDISCSynonym>AVL01-List A Recall 5 Word 15</nciodm:CDISCSynonym>
                    <nciodm:CDISCDefinition>Auditory Verbal Learning Test Version A - List A, Recall 5, Word 15.</nciodm:CDISCDefinition>
                    <nciodm:PreferredTerm>ADNI AVLT - List A Recall 5 Word 15</nciodm:PreferredTerm>
                </EnumeratedItem>
                <EnumeratedItem CodedValue="AVL01-List A Recall 5 Word 2" nciodm:ExtCodeID="C101965">
                    <nciodm:CDISCSynonym>AVL01-List A Recall 5 Word 2</nciodm:CDISCSynonym>
                    <nciodm:CDISCDefinition>Auditory Verbal Learning Test Version A - List A, Recall 5, Word 2.</nciodm:CDISCDefinition>
                    <nciodm:PreferredTerm>ADNI AVLT - List A Recall 5 Word 2</nciodm:PreferredTerm>
                </EnumeratedItem>
                <EnumeratedItem CodedValue="AVL01-List A Recall 5 Word 3" nciodm:ExtCodeID="C101966">
                    <nciodm:CDISCSynonym>AVL01-List A Recall 5 Word 3</nciodm:CDISCSynonym>
                    <nciodm:CDISCDefinition>Auditory Verbal Learning Test Version A - List A, Recall 5, Word 3.</nciodm:CDISCDefinition>
                    <nciodm:PreferredTerm>ADNI AVLT - List A Recall 5 Word 3</nciodm:PreferredTerm>
                </EnumeratedItem>
                <EnumeratedItem CodedValue="AVL01-List A Recall 5 Word 4" nciodm:ExtCodeID="C101967">
                    <nciodm:CDISCSynonym>AVL01-List A Recall 5 Word 4</nciodm:CDISCSynonym>
                    <nciodm:CDISCDefinition>Auditory Verbal Learning Test Version A - List A, Recall 5, Word 4.</nciodm:CDISCDefinition>
                    <nciodm:PreferredTerm>ADNI AVLT - List A Recall 5 Word 4</nciodm:PreferredTerm>
                </EnumeratedItem>
                <EnumeratedItem CodedValue="AVL01-List A Recall 5 Word 5" nciodm:ExtCodeID="C101968">
                    <nciodm:CDISCSynonym>AVL01-List A Recall 5 Word 5</nciodm:CDISCSynonym>
                    <nciodm:CDISCDefinition>Auditory Verbal Learning Test Version A - List A, Recall 5, Word 5.</nciodm:CDISCDefinition>
                    <nciodm:PreferredTerm>ADNI AVLT - List A Recall 5 Word 5</nciodm:PreferredTerm>
                </EnumeratedItem>
                <EnumeratedItem CodedValue="AVL01-List A Recall 5 Word 6" nciodm:ExtCodeID="C101969">
                    <nciodm:CDISCSynonym>AVL01-List A Recall 5 Word 6</nciodm:CDISCSynonym>
                    <nciodm:CDISCDefinition>Auditory Verbal Learning Test Version A - List A, Recall 5, Word 6.</nciodm:CDISCDefinition>
                    <nciodm:PreferredTerm>ADNI AVLT - List A Recall 5 Word 6</nciodm:PreferredTerm>
                </EnumeratedItem>
                <EnumeratedItem CodedValue="AVL01-List A Recall 5 Word 7" nciodm:ExtCodeID="C101970">
                    <nciodm:CDISCSynonym>AVL01-List A Recall 5 Word 7</nciodm:CDISCSynonym>
                    <nciodm:CDISCDefinition>Auditory Verbal Learning Test Version A - List A, Recall 5, Word 7.</nciodm:CDISCDefinition>
                    <nciodm:PreferredTerm>ADNI AVLT - List A Recall 5 Word 7</nciodm:PreferredTerm>
                </EnumeratedItem>
                <EnumeratedItem CodedValue="AVL01-List A Recall 5 Word 8" nciodm:ExtCodeID="C101971">
                    <nciodm:CDISCSynonym>AVL01-List A Recall 5 Word 8</nciodm:CDISCSynonym>
                    <nciodm:CDISCDefinition>Auditory Verbal Learning Test Version A - List A, Recall 5, Word 8.</nciodm:CDISCDefinition>
                    <nciodm:PreferredTerm>ADNI AVLT - List A Recall 5 Word 8</nciodm:PreferredTerm>
                </EnumeratedItem>
                <EnumeratedItem CodedValue="AVL01-List A Recall 5 Word 9" nciodm:ExtCodeID="C101972">
                    <nciodm:CDISCSynonym>AVL01-List A Recall 5 Word 9</nciodm:CDISCSynonym>
                    <nciodm:CDISCDefinition>Auditory Verbal Learning Test Version A - List A, Recall 5, Word 9.</nciodm:CDISCDefinition>
                    <nciodm:PreferredTerm>ADNI AVLT - List A Recall 5 Word 9</nciodm:PreferredTerm>
                </EnumeratedItem>
                <EnumeratedItem CodedValue="AVL01-List A Recall 6 (After B) Total" nciodm:ExtCodeID="C101996">
                    <nciodm:CDISCSynonym>AVL01-List A Recall 6 (After B) Total</nciodm:CDISCSynonym>
                    <nciodm:CDISCDefinition>Auditory Verbal Learning Test Version A - The number of words recalled from List A, sixth attempt (after List B recall).</nciodm:CDISCDefinition>
                    <nciodm:PreferredTerm>ADNI AVLT - List A Recall 6 (After B) Total</nciodm:PreferredTerm>
                </EnumeratedItem>
                <EnumeratedItem CodedValue="AVL01-List A Recall 6 (After B) Word 1" nciodm:ExtCodeID="C101981">
                    <nciodm:CDISCSynonym>AVL01-List A Recall 6 (After B) Word 1</nciodm:CDISCSynonym>
                    <nciodm:CDISCDefinition>Auditory Verbal Learning Test Version A - List A, Recall 6 (after B Recall), Word 1.</nciodm:CDISCDefinition>
                    <nciodm:PreferredTerm>ADNI AVLT - List A Recall 6 (After B) Word 1</nciodm:PreferredTerm>
                </EnumeratedItem>
                <EnumeratedItem CodedValue="AVL01-List A Recall 6 (After B) Word 10" nciodm:ExtCodeID="C101990">
                    <nciodm:CDISCSynonym>AVL01-List A Recall 6 (After B) Word 10</nciodm:CDISCSynonym>
                    <nciodm:CDISCDefinition>Auditory Verbal Learning Test Version A - List A, Recall 6 (after B Recall), Word 10.</nciodm:CDISCDefinition>
                    <nciodm:PreferredTerm>ADNI AVLT - List A Recall 6 (After B) Word 10</nciodm:PreferredTerm>
                </EnumeratedItem>
                <EnumeratedItem CodedValue="AVL01-List A Recall 6 (After B) Word 11" nciodm:ExtCodeID="C101991">
                    <nciodm:CDISCSynonym>AVL01-List A Recall 6 (After B) Word 11</nciodm:CDISCSynonym>
                    <nciodm:CDISCDefinition>Auditory Verbal Learning Test Version A - List A, Recall 6 (after B Recall), Word 11.</nciodm:CDISCDefinition>
                    <nciodm:PreferredTerm>ADNI AVLT - List A Recall 6 (After B) Word 11</nciodm:PreferredTerm>
                </EnumeratedItem>
                <EnumeratedItem CodedValue="AVL01-List A Recall 6 (After B) Word 12" nciodm:ExtCodeID="C101992">
                    <nciodm:CDISCSynonym>AVL01-List A Recall 6 (After B) Word 12</nciodm:CDISCSynonym>
                    <nciodm:CDISCDefinition>Auditory Verbal Learning Test Version A - List A, Recall 6 (after B Recall), Word 12.</nciodm:CDISCDefinition>
                    <nciodm:PreferredTerm>ADNI AVLT - List A Recall 6 (After B) Word 12</nciodm:PreferredTerm>
                </EnumeratedItem>
                <EnumeratedItem CodedValue="AVL01-List A Recall 6 (After B) Word 13" nciodm:ExtCodeID="C101993">
                    <nciodm:CDISCSynonym>AVL01-List A Recall 6 (After B) Word 13</nciodm:CDISCSynonym>
                    <nciodm:CDISCDefinition>Auditory Verbal Learning Test Version A - List A, Recall 6 (after B Recall), Word 13.</nciodm:CDISCDefinition>
                    <nciodm:PreferredTerm>ADNI AVLT - List A Recall 6 (After B) Word 13</nciodm:PreferredTerm>
                </EnumeratedItem>
                <EnumeratedItem CodedValue="AVL01-List A Recall 6 (After B) Word 14" nciodm:ExtCodeID="C101994">
                    <nciodm:CDISCSynonym>AVL01-List A Recall 6 (After B) Word 14</nciodm:CDISCSynonym>
                    <nciodm:CDISCDefinition>Auditory Verbal Learning Test Version A - List A, Recall 6 (after B Recall), Word 14.</nciodm:CDISCDefinition>
                    <nciodm:PreferredTerm>ADNI AVLT - List A Recall 6 (After B) Word 14</nciodm:PreferredTerm>
                </EnumeratedItem>
                <EnumeratedItem CodedValue="AVL01-List A Recall 6 (After B) Word 15" nciodm:ExtCodeID="C101995">
                    <nciodm:CDISCSynonym>AVL01-List A Recall 6 (After B) Word 15</nciodm:CDISCSynonym>
                    <nciodm:CDISCDefinition>Auditory Verbal Learning Test Version A - List A, Recall 6 (after B Recall), Word 15.</nciodm:CDISCDefinition>
                    <nciodm:PreferredTerm>ADNI AVLT - List A Recall 6 (After B) Word 15</nciodm:PreferredTerm>
                </EnumeratedItem>
                <EnumeratedItem CodedValue="AVL01-List A Recall 6 (After B) Word 2" nciodm:ExtCodeID="C101982">
                    <nciodm:CDISCSynonym>AVL01-List A Recall 6 (After B) Word 2</nciodm:CDISCSynonym>
                    <nciodm:CDISCDefinition>Auditory Verbal Learning Test Version A - List A, Recall 6 (after B Recall), Word 2.</nciodm:CDISCDefinition>
                    <nciodm:PreferredTerm>ADNI AVLT - List A Recall 6 (After B) Word 2</nciodm:PreferredTerm>
                </EnumeratedItem>
                <EnumeratedItem CodedValue="AVL01-List A Recall 6 (After B) Word 3" nciodm:ExtCodeID="C101983">
                    <nciodm:CDISCSynonym>AVL01-List A Recall 6 (After B) Word 3</nciodm:CDISCSynonym>
                    <nciodm:CDISCDefinition>Auditory Verbal Learning Test Version A - List A, Recall 6 (after B Recall), Word 3.</nciodm:CDISCDefinition>
                    <nciodm:PreferredTerm>ADNI AVLT - List A Recall 6 (After B) Word 3</nciodm:PreferredTerm>
                </EnumeratedItem>
                <EnumeratedItem CodedValue="AVL01-List A Recall 6 (After B) Word 4" nciodm:ExtCodeID="C101984">
                    <nciodm:CDISCSynonym>AVL01-List A Recall 6 (After B) Word 4</nciodm:CDISCSynonym>
                    <nciodm:CDISCDefinition>Auditory Verbal Learning Test Version A - List A, Recall 6 (after B Recall), Word 4.</nciodm:CDISCDefinition>
                    <nciodm:PreferredTerm>ADNI AVLT - List A Recall 6 (After B) Word 4</nciodm:PreferredTerm>
                </EnumeratedItem>
                <EnumeratedItem CodedValue="AVL01-List A Recall 6 (After B) Word 5" nciodm:ExtCodeID="C101985">
                    <nciodm:CDISCSynonym>AVL01-List A Recall 6 (After B) Word 5</nciodm:CDISCSynonym>
                    <nciodm:CDISCDefinition>Auditory Verbal Learning Test Version A - List A, Recall 6 (after B Recall), Word 5.</nciodm:CDISCDefinition>
                    <nciodm:PreferredTerm>ADNI AVLT - List A Recall 6 (After B) Word 5</nciodm:PreferredTerm>
                </EnumeratedItem>
                <EnumeratedItem CodedValue="AVL01-List A Recall 6 (After B) Word 6" nciodm:ExtCodeID="C101986">
                    <nciodm:CDISCSynonym>AVL01-List A Recall 6 (After B) Word 6</nciodm:CDISCSynonym>
                    <nciodm:CDISCDefinition>Auditory Verbal Learning Test Version A - List A, Recall 6 (after B Recall), Word 6.</nciodm:CDISCDefinition>
                    <nciodm:PreferredTerm>ADNI AVLT - List A Recall 6 (After B) Word 6</nciodm:PreferredTerm>
                </EnumeratedItem>
                <EnumeratedItem CodedValue="AVL01-List A Recall 6 (After B) Word 7" nciodm:ExtCodeID="C101987">
                    <nciodm:CDISCSynonym>AVL01-List A Recall 6 (After B) Word 7</nciodm:CDISCSynonym>
                    <nciodm:CDISCDefinition>Auditory Verbal Learning Test Version A - List A, Recall 6 (after B Recall), Word 7.</nciodm:CDISCDefinition>
                    <nciodm:PreferredTerm>ADNI AVLT - List A Recall 6 (After B) Word 7</nciodm:PreferredTerm>
                </EnumeratedItem>
                <EnumeratedItem CodedValue="AVL01-List A Recall 6 (After B) Word 8" nciodm:ExtCodeID="C101988">
                    <nciodm:CDISCSynonym>AVL01-List A Recall 6 (After B) Word 8</nciodm:CDISCSynonym>
                    <nciodm:CDISCDefinition>Auditory Verbal Learning Test Version A - List A, Recall 6 (after B Recall), Word 8.</nciodm:CDISCDefinition>
                    <nciodm:PreferredTerm>ADNI AVLT - List A Recall 6 (After B) Word 8</nciodm:PreferredTerm>
                </EnumeratedItem>
                <EnumeratedItem CodedValue="AVL01-List A Recall 6 (After B) Word 9" nciodm:ExtCodeID="C101989">
                    <nciodm:CDISCSynonym>AVL01-List A Recall 6 (After B) Word 9</nciodm:CDISCSynonym>
                    <nciodm:CDISCDefinition>Auditory Verbal Learning Test Version A - List A, Recall 6 (after B Recall), Word 9.</nciodm:CDISCDefinition>
                    <nciodm:PreferredTerm>ADNI AVLT - List A Recall 6 (After B) Word 9</nciodm:PreferredTerm>
                </EnumeratedItem>
                <EnumeratedItem CodedValue="AVL01-List A Recognition Intrusions" nciodm:ExtCodeID="C102033">
                    <nciodm:CDISCSynonym>AVL01-List A Recognition Intrusions</nciodm:CDISCSynonym>
                    <nciodm:CDISCDefinition>Auditory Verbal Learning Test Version A - The number of intrusions on recognition test.</nciodm:CDISCDefinition>
                    <nciodm:PreferredTerm>ADNI AVLT - List A Recognition Intrusions</nciodm:PreferredTerm>
                </EnumeratedItem>
                <EnumeratedItem CodedValue="AVL01-List A Recognition Total" nciodm:ExtCodeID="C102032">
                    <nciodm:CDISCSynonym>AVL01-List A Recognition Total</nciodm:CDISCSynonym>
                    <nciodm:CDISCDefinition>Auditory Verbal Learning Test Version A - The number of words correct on recognition test.</nciodm:CDISCDefinition>
                    <nciodm:PreferredTerm>ADNI AVLT - List A Recognition Total</nciodm:PreferredTerm>
                </EnumeratedItem>
                <EnumeratedItem CodedValue="AVL01-List B Intrusions" nciodm:ExtCodeID="C102014">
                    <nciodm:CDISCSynonym>AVL01-List B Intrusions</nciodm:CDISCSynonym>
                    <nciodm:CDISCDefinition>Auditory Verbal Learning Test Version A - The number of intrusions while recalling List B.</nciodm:CDISCDefinition>
                    <nciodm:PreferredTerm>ADNI AVLT - List B Intrusions</nciodm:PreferredTerm>
                </EnumeratedItem>
                <EnumeratedItem CodedValue="AVL01-List B Recall Total" nciodm:ExtCodeID="C102013">
                    <nciodm:CDISCSynonym>AVL01-List B Recall Total</nciodm:CDISCSynonym>
                    <nciodm:CDISCDefinition>Auditory Verbal Learning Test Version A - The number of words recalled from List B.</nciodm:CDISCDefinition>
                    <nciodm:PreferredTerm>ADNI AVLT - List B Recall Total</nciodm:PreferredTerm>
                </EnumeratedItem>
                <EnumeratedItem CodedValue="AVL01-List B Recall Word 1" nciodm:ExtCodeID="C101998">
                    <nciodm:CDISCSynonym>AVL01-List B Recall Word 1</nciodm:CDISCSynonym>
                    <nciodm:CDISCDefinition>Auditory Verbal Learning Test Version A - List B, Word 1.</nciodm:CDISCDefinition>
                    <nciodm:PreferredTerm>ADNI AVLT - List B Recall Word 1</nciodm:PreferredTerm>
                </EnumeratedItem>
                <EnumeratedItem CodedValue="AVL01-List B Recall Word 10" nciodm:ExtCodeID="C102007">
                    <nciodm:CDISCSynonym>AVL01-List B Recall Word 10</nciodm:CDISCSynonym>
                    <nciodm:CDISCDefinition>Auditory Verbal Learning Test Version A - List B, Word 10.</nciodm:CDISCDefinition>
                    <nciodm:PreferredTerm>ADNI AVLT - List B Recall Word 10</nciodm:PreferredTerm>
                </EnumeratedItem>
                <EnumeratedItem CodedValue="AVL01-List B Recall Word 11" nciodm:ExtCodeID="C102008">
                    <nciodm:CDISCSynonym>AVL01-List B Recall Word 11</nciodm:CDISCSynonym>
                    <nciodm:CDISCDefinition>Auditory Verbal Learning Test Version A - List B, Word 11.</nciodm:CDISCDefinition>
                    <nciodm:PreferredTerm>ADNI AVLT - List B Recall Word 11</nciodm:PreferredTerm>
                </EnumeratedItem>
                <EnumeratedItem CodedValue="AVL01-List B Recall Word 12" nciodm:ExtCodeID="C102009">
                    <nciodm:CDISCSynonym>AVL01-List B Recall Word 12</nciodm:CDISCSynonym>
                    <nciodm:CDISCDefinition>Auditory Verbal Learning Test Version A - List B, Word 12.</nciodm:CDISCDefinition>
                    <nciodm:PreferredTerm>ADNI AVLT - List B Recall Word 12</nciodm:PreferredTerm>
                </EnumeratedItem>
                <EnumeratedItem CodedValue="AVL01-List B Recall Word 13" nciodm:ExtCodeID="C102010">
                    <nciodm:CDISCSynonym>AVL01-List B Recall Word 13</nciodm:CDISCSynonym>
                    <nciodm:CDISCDefinition>Auditory Verbal Learning Test Version A - List B, Word 13.</nciodm:CDISCDefinition>
                    <nciodm:PreferredTerm>ADNI AVLT - List B Recall Word 13</nciodm:PreferredTerm>
                </EnumeratedItem>
                <EnumeratedItem CodedValue="AVL01-List B Recall Word 14" nciodm:ExtCodeID="C102011">
                    <nciodm:CDISCSynonym>AVL01-List B Recall Word 14</nciodm:CDISCSynonym>
                    <nciodm:CDISCDefinition>Auditory Verbal Learning Test Version A - List B, Word 14.</nciodm:CDISCDefinition>
                    <nciodm:PreferredTerm>ADNI AVLT - List B Recall Word 14</nciodm:PreferredTerm>
                </EnumeratedItem>
                <EnumeratedItem CodedValue="AVL01-List B Recall Word 15" nciodm:ExtCodeID="C102012">
                    <nciodm:CDISCSynonym>AVL01-List B Recall Word 15</nciodm:CDISCSynonym>
                    <nciodm:CDISCDefinition>Auditory Verbal Learning Test Version A - List B, Word 15.</nciodm:CDISCDefinition>
                    <nciodm:PreferredTerm>ADNI AVLT - List B Recall Word 15</nciodm:PreferredTerm>
                </EnumeratedItem>
                <EnumeratedItem CodedValue="AVL01-List B Recall Word 2" nciodm:ExtCodeID="C101999">
                    <nciodm:CDISCSynonym>AVL01-List B Recall Word 2</nciodm:CDISCSynonym>
                    <nciodm:CDISCDefinition>Auditory Verbal Learning Test Version A - List B, Word 2.</nciodm:CDISCDefinition>
                    <nciodm:PreferredTerm>ADNI AVLT - List B Recall Word 2</nciodm:PreferredTerm>
                </EnumeratedItem>
                <EnumeratedItem CodedValue="AVL01-List B Recall Word 3" nciodm:ExtCodeID="C102000">
                    <nciodm:CDISCSynonym>AVL01-List B Recall Word 3</nciodm:CDISCSynonym>
                    <nciodm:CDISCDefinition>Auditory Verbal Learning Test Version A - List B, Word 3.</nciodm:CDISCDefinition>
                    <nciodm:PreferredTerm>ADNI AVLT - List B Recall Word 3</nciodm:PreferredTerm>
                </EnumeratedItem>
                <EnumeratedItem CodedValue="AVL01-List B Recall Word 4" nciodm:ExtCodeID="C102001">
                    <nciodm:CDISCSynonym>AVL01-List B Recall Word 4</nciodm:CDISCSynonym>
                    <nciodm:CDISCDefinition>Auditory Verbal Learning Test Version A - List B, Word 4.</nciodm:CDISCDefinition>
                    <nciodm:PreferredTerm>ADNI AVLT - List B Recall Word 4</nciodm:PreferredTerm>
                </EnumeratedItem>
                <EnumeratedItem CodedValue="AVL01-List B Recall Word 5" nciodm:ExtCodeID="C102002">
                    <nciodm:CDISCSynonym>AVL01-List B Recall Word 5</nciodm:CDISCSynonym>
                    <nciodm:CDISCDefinition>Auditory Verbal Learning Test Version A - List B, Word 5.</nciodm:CDISCDefinition>
                    <nciodm:PreferredTerm>ADNI AVLT - List B Recall Word 5</nciodm:PreferredTerm>
                </EnumeratedItem>
                <EnumeratedItem CodedValue="AVL01-List B Recall Word 6" nciodm:ExtCodeID="C102003">
                    <nciodm:CDISCSynonym>AVL01-List B Recall Word 6</nciodm:CDISCSynonym>
                    <nciodm:CDISCDefinition>Auditory Verbal Learning Test Version A - List B, Word 6.</nciodm:CDISCDefinition>
                    <nciodm:PreferredTerm>ADNI AVLT - List B Recall Word 6</nciodm:PreferredTerm>
                </EnumeratedItem>
                <EnumeratedItem CodedValue="AVL01-List B Recall Word 7" nciodm:ExtCodeID="C102004">
                    <nciodm:CDISCSynonym>AVL01-List B Recall Word 7</nciodm:CDISCSynonym>
                    <nciodm:CDISCDefinition>Auditory Verbal Learning Test Version A - List B, Word 7.</nciodm:CDISCDefinition>
                    <nciodm:PreferredTerm>ADNI AVLT - List B Recall Word 7</nciodm:PreferredTerm>
                </EnumeratedItem>
                <EnumeratedItem CodedValue="AVL01-List B Recall Word 8" nciodm:ExtCodeID="C102005">
                    <nciodm:CDISCSynonym>AVL01-List B Recall Word 8</nciodm:CDISCSynonym>
                    <nciodm:CDISCDefinition>Auditory Verbal Learning Test Version A - List B, Word 8.</nciodm:CDISCDefinition>
                    <nciodm:PreferredTerm>ADNI AVLT - List B Recall Word 8</nciodm:PreferredTerm>
                </EnumeratedItem>
                <EnumeratedItem CodedValue="AVL01-List B Recall Word 9" nciodm:ExtCodeID="C102006">
                    <nciodm:CDISCSynonym>AVL01-List B Recall Word 9</nciodm:CDISCSynonym>
                    <nciodm:CDISCDefinition>Auditory Verbal Learning Test Version A - List B, Word 9.</nciodm:CDISCDefinition>
                    <nciodm:PreferredTerm>ADNI AVLT - List B Recall Word 9</nciodm:PreferredTerm>
                </EnumeratedItem>
                <nciodm:CDISCSubmissionValue>AVLT TEST</nciodm:CDISCSubmissionValue>
                <nciodm:CDISCSynonym>ADNI AVLT Test Name</nciodm:CDISCSynonym>
                <nciodm:PreferredTerm>CDISC Questionnaire ADNI AVLT Test Name Terminology</nciodm:PreferredTerm>
            </CodeList>
            <CodeList OID="CL.C112435.AQ20 TESTCD" Name="Airway Questionnaire 20 Test Code" DataType="text" nciodm:ExtCodeID="C112435" nciodm:CodeListExtensible="No">
                <Description>
                    <TranslatedText xml:lang="en">Airway Questionnaire 20 test code.</TranslatedText>
                </Description>
                <EnumeratedItem CodedValue="AQ0101" nciodm:ExtCodeID="C112529">
                    <nciodm:CDISCSynonym>AQ01-Cough Often During Day</nciodm:CDISCSynonym>
                    <nciodm:CDISCDefinition>Airway Questionnaire 20 - Do you cough often during the day?</nciodm:CDISCDefinition>
                    <nciodm:PreferredTerm>AQ20 - Cough Often During the Day</nciodm:PreferredTerm>
                </EnumeratedItem>
                <EnumeratedItem CodedValue="AQ0102" nciodm:ExtCodeID="C112530">
                    <nciodm:CDISCSynonym>AQ01-Feel Restless Due to Chest Trouble</nciodm:CDISCSynonym>
                    <nciodm:CDISCDefinition>Airway Questionnaire 20 - Does your chest trouble often make you feel restless?</nciodm:CDISCDefinition>
                    <nciodm:PreferredTerm>AQ20 - Chest Trouble Make You Feel Restless</nciodm:PreferredTerm>
                </EnumeratedItem>
                <EnumeratedItem CodedValue="AQ0103" nciodm:ExtCodeID="C112531">
                    <nciodm:CDISCSynonym>AQ01-Gardening Make You Breathless</nciodm:CDISCSynonym>
                    <nciodm:CDISCDefinition>Airway Questionnaire 20 - Does gardening make you breathless?</nciodm:CDISCDefinition>
                    <nciodm:PreferredTerm>AQ20 - Gardening Make You Breathless</nciodm:PreferredTerm>
                </EnumeratedItem>
                <EnumeratedItem CodedValue="AQ0104" nciodm:ExtCodeID="C112532">
                    <nciodm:CDISCSynonym>AQ01-Chest Upset at Friend House</nciodm:CDISCSynonym>
                    <nciodm:CDISCDefinition>Airway Questionnaire 20 - Do you worry when going to a friend's house that there might be something there that will upset your chest?</nciodm:CDISCDefinition>
                    <nciodm:PreferredTerm>AQ20 - Worry When Going to Friend House Something Will Upset Your Chest</nciodm:PreferredTerm>
                </EnumeratedItem>
                <EnumeratedItem CodedValue="AQ0105" nciodm:ExtCodeID="C112533">
                    <nciodm:CDISCSynonym>AQ01-Chest Prob Smell/Fume/Smoke/Perfume</nciodm:CDISCSynonym>
                    <nciodm:CDISCDefinition>Airway Questionnaire 20 - Do you get chest problems when you come into contact with strong smells, exhaust fumes, cigarette smoke, perfume etc?</nciodm:CDISCDefinition>
                    <nciodm:PreferredTerm>AQ20 - Get Chest Problems When Contact With Strong Smells</nciodm:PreferredTerm>
                </EnumeratedItem>
                <EnumeratedItem CodedValue="AQ0106" nciodm:ExtCodeID="C112534">
                    <nciodm:CDISCSynonym>AQ01-Partner Upset by Your Chest Trouble</nciodm:CDISCSynonym>
                    <nciodm:CDISCDefinition>Airway Questionnaire 20 - Does your partner find your chest trouble upsetting?</nciodm:CDISCDefinition>
                    <nciodm:PreferredTerm>AQ20 - Partner Find Your Chest Trouble Upsetting</nciodm:PreferredTerm>
                </EnumeratedItem>
                <EnumeratedItem CodedValue="AQ0107" nciodm:ExtCodeID="C112535">
                    <nciodm:CDISCSynonym>AQ01-Breathless When Trying to Sleep</nciodm:CDISCSynonym>
                    <nciodm:CDISCDefinition>Airway Questionnaire 20 - Do you feel breathless when trying to sleep?</nciodm:CDISCDefinition>
                    <nciodm:PreferredTerm>AQ20 - Feel Breathless When Trying to Sleep</nciodm:PreferredTerm>
                </EnumeratedItem>
                <EnumeratedItem CodedValue="AQ0108" nciodm:ExtCodeID="C112536">
                    <nciodm:CDISCSynonym>AQ01-Long Term Effects of Drugs</nciodm:CDISCSynonym>
                    <nciodm:CDISCDefinition>Airway Questionnaire 20 - Do you worry about the long term effects of the drugs you take for your chest trouble?</nciodm:CDISCDefinition>
                    <nciodm:PreferredTerm>AQ20 - Worry About Long Term Effects of Drugs for Chest Trouble</nciodm:PreferredTerm>
                </EnumeratedItem>
                <EnumeratedItem CodedValue="AQ0109" nciodm:ExtCodeID="C112537">
                    <nciodm:CDISCSynonym>AQ01-Emotional Upset Worse Chest Trouble</nciodm:CDISCSynonym>
                    <nciodm:CDISCDefinition>Airway Questionnaire 20 - Does getting emotionally upset make your chest trouble worse?</nciodm:CDISCDefinition>
                    <nciodm:PreferredTerm>AQ20 - Getting Emotionally Upset Make Chest Trouble Worse</nciodm:PreferredTerm>
                </EnumeratedItem>
                <EnumeratedItem CodedValue="AQ0110" nciodm:ExtCodeID="C112538">
                    <nciodm:CDISCSynonym>AQ01-Difficulty Getting Around the House</nciodm:CDISCSynonym>
                    <nciodm:CDISCDefinition>Airway Questionnaire 20 - Are there times when you have difficulty getting around the house because of your chest trouble?</nciodm:CDISCDefinition>
                    <nciodm:PreferredTerm>AQ20 - Difficulty Getting Around the House Because of Chest Trouble</nciodm:PreferredTerm>
                </EnumeratedItem>
                <EnumeratedItem CodedValue="AQ0111" nciodm:ExtCodeID="C112539">
                    <nciodm:CDISCSynonym>AQ01-Breathless Carry out Work Activity</nciodm:CDISCSynonym>
                    <nciodm:CDISCDefinition>Airway Questionnaire 20 - Does your chest problem make you breathless when you do things at work? (paid employment).</nciodm:CDISCDefinition>
                    <nciodm:PreferredTerm>AQ20 - Chest Problem Make You Breathless at Work</nciodm:PreferredTerm>
                </EnumeratedItem>
                <EnumeratedItem CodedValue="AQ0112" nciodm:ExtCodeID="C112540">
                    <nciodm:CDISCSynonym>AQ01-Breathless Walking Upstairs</nciodm:CDISCSynonym>
                    <nciodm:CDISCDefinition>Airway Questionnaire 20 - Does walking upstairs make you breathless?</nciodm:CDISCDefinition>
                    <nciodm:PreferredTerm>AQ20 - Walking Upstairs Make You Breathless</nciodm:PreferredTerm>
                </EnumeratedItem>
                <EnumeratedItem CodedValue="AQ0113" nciodm:ExtCodeID="C112541">
                    <nciodm:CDISCSynonym>AQ01-Get Breathless Doing Housework</nciodm:CDISCSynonym>
                    <nciodm:CDISCDefinition>Airway Questionnaire 20 - Do you get breathless doing housework?</nciodm:CDISCDefinition>
                    <nciodm:PreferredTerm>AQ20 - Get Breathless Doing Housework</nciodm:PreferredTerm>
                </EnumeratedItem>
                <EnumeratedItem CodedValue="AQ0114" nciodm:ExtCodeID="C112542">
                    <nciodm:CDISCSynonym>AQ01-Go Home Sooner Than Others</nciodm:CDISCSynonym>
                    <nciodm:CDISCDefinition>Airway Questionnaire 20 - Does your chest trouble make you go home sooner than others after a night out?</nciodm:CDISCDefinition>
                    <nciodm:PreferredTerm>AQ20 - Chest Trouble Make You Go Home Sooner Than Others</nciodm:PreferredTerm>
                </EnumeratedItem>
                <EnumeratedItem CodedValue="AQ0115" nciodm:ExtCodeID="C112543">
                    <nciodm:CDISCSynonym>AQ01-Breathlessness When Laugh</nciodm:CDISCSynonym>
                    <nciodm:CDISCDefinition>Airway Questionnaire 20 - Do you suffer from breathlessness when you laugh?</nciodm:CDISCDefinition>
                    <nciodm:PreferredTerm>AQ20 - Suffer From Breathlessness When Laugh</nciodm:PreferredTerm>
                </EnumeratedItem>
                <EnumeratedItem CodedValue="AQ0116" nciodm:ExtCodeID="C112544">
                    <nciodm:CDISCSynonym>AQ01-Impatient Due to Chest Trouble</nciodm:CDISCSynonym>
                    <nciodm:CDISCDefinition>Airway Questionnaire 20 - Does your chest trouble often make you feel impatient?</nciodm:CDISCDefinition>
                    <nciodm:PreferredTerm>AQ20 - Chest Trouble Make You Feel Impatient</nciodm:PreferredTerm>
                </EnumeratedItem>
                <EnumeratedItem CodedValue="AQ0117" nciodm:ExtCodeID="C112545">
                    <nciodm:CDISCSynonym>AQ01-Full Life Limited by Chest Trouble</nciodm:CDISCSynonym>
                    <nciodm:CDISCDefinition>Airway Questionnaire 20 - Do you think the fullness of your life is limited by your chest trouble?</nciodm:CDISCDefinition>
                    <nciodm:PreferredTerm>AQ20 - Fullness of Life is Limited by Chest Trouble</nciodm:PreferredTerm>
                </EnumeratedItem>
                <EnumeratedItem CodedValue="AQ0118" nciodm:ExtCodeID="C112546">
                    <nciodm:CDISCSynonym>AQ01-Drained After a Cold</nciodm:CDISCSynonym>
                    <nciodm:CDISCDefinition>Airway Questionnaire 20 - Do you feel drained after a cold because of your chest trouble?</nciodm:CDISCDefinition>
                    <nciodm:PreferredTerm>AQ20 - Feel Drained After a Cold Because of Chest Trouble</nciodm:PreferredTerm>
                </EnumeratedItem>
                <EnumeratedItem CodedValue="AQ0119" nciodm:ExtCodeID="C112547">
                    <nciodm:CDISCSynonym>AQ01-Feeling of Chest Heaviness</nciodm:CDISCSynonym>
                    <nciodm:CDISCDefinition>Airway Questionnaire 20 - Do you have a feeling of chest heaviness?</nciodm:CDISCDefinition>
                    <nciodm:PreferredTerm>AQ20 - Feeling of Chest Heaviness</nciodm:PreferredTerm>
                </EnumeratedItem>
                <EnumeratedItem CodedValue="AQ0120" nciodm:ExtCodeID="C112548">
                    <nciodm:CDISCSynonym>AQ01-Worry About Chest Trouble</nciodm:CDISCSynonym>
                    <nciodm:CDISCDefinition>Airway Questionnaire 20 - Do you worry a lot about your chest trouble?</nciodm:CDISCDefinition>
                    <nciodm:PreferredTerm>AQ20 - Worry a Lot About Chest Trouble</nciodm:PreferredTerm>
                </EnumeratedItem>
                <nciodm:CDISCSubmissionValue>AQ20 TESTCD</nciodm:CDISCSubmissionValue>
                <nciodm:CDISCSynonym>Airway Questionnaire 20 Test Code</nciodm:CDISCSynonym>
                <nciodm:PreferredTerm>CDISC Questionnaire AQ20 Test Code Terminology</nciodm:PreferredTerm>
            </CodeList>
            <CodeList OID="CL.C112434.AQ20 TEST" Name="Airway Questionnaire 20 Test Name" DataType="text" nciodm:ExtCodeID="C112434" nciodm:CodeListExtensible="No">
                <Description>
                    <TranslatedText xml:lang="en">Airway Questionnaire 20 test name.</TranslatedText>
                </Description>
                <EnumeratedItem CodedValue="AQ01-Breathless Carry out Work Activity" nciodm:ExtCodeID="C112539">
                    <nciodm:CDISCSynonym>AQ01-Breathless Carry out Work Activity</nciodm:CDISCSynonym>
                    <nciodm:CDISCDefinition>Airway Questionnaire 20 - Does your chest problem make you breathless when you do things at work? (paid employment).</nciodm:CDISCDefinition>
                    <nciodm:PreferredTerm>AQ20 - Chest Problem Make You Breathless at Work</nciodm:PreferredTerm>
                </EnumeratedItem>
                <EnumeratedItem CodedValue="AQ01-Breathless Walking Upstairs" nciodm:ExtCodeID="C112540">
                    <nciodm:CDISCSynonym>AQ01-Breathless Walking Upstairs</nciodm:CDISCSynonym>
                    <nciodm:CDISCDefinition>Airway Questionnaire 20 - Does walking upstairs make you breathless?</nciodm:CDISCDefinition>
                    <nciodm:PreferredTerm>AQ20 - Walking Upstairs Make You Breathless</nciodm:PreferredTerm>
                </EnumeratedItem>
                <EnumeratedItem CodedValue="AQ01-Breathless When Trying to Sleep" nciodm:ExtCodeID="C112535">
                    <nciodm:CDISCSynonym>AQ01-Breathless When Trying to Sleep</nciodm:CDISCSynonym>
                    <nciodm:CDISCDefinition>Airway Questionnaire 20 - Do you feel breathless when trying to sleep?</nciodm:CDISCDefinition>
                    <nciodm:PreferredTerm>AQ20 - Feel Breathless When Trying to Sleep</nciodm:PreferredTerm>
                </EnumeratedItem>
                <EnumeratedItem CodedValue="AQ01-Breathlessness When Laugh" nciodm:ExtCodeID="C112543">
                    <nciodm:CDISCSynonym>AQ01-Breathlessness When Laugh</nciodm:CDISCSynonym>
                    <nciodm:CDISCDefinition>Airway Questionnaire 20 - Do you suffer from breathlessness when you laugh?</nciodm:CDISCDefinition>
                    <nciodm:PreferredTerm>AQ20 - Suffer From Breathlessness When Laugh</nciodm:PreferredTerm>
                </EnumeratedItem>
                <EnumeratedItem CodedValue="AQ01-Chest Prob Smell/Fume/Smoke/Perfume" nciodm:ExtCodeID="C112533">
                    <nciodm:CDISCSynonym>AQ01-Chest Prob Smell/Fume/Smoke/Perfume</nciodm:CDISCSynonym>
                    <nciodm:CDISCDefinition>Airway Questionnaire 20 - Do you get chest problems when you come into contact with strong smells, exhaust fumes, cigarette smoke, perfume etc?</nciodm:CDISCDefinition>
                    <nciodm:PreferredTerm>AQ20 - Get Chest Problems When Contact With Strong Smells</nciodm:PreferredTerm>
                </EnumeratedItem>
                <EnumeratedItem CodedValue="AQ01-Chest Upset at Friend House" nciodm:ExtCodeID="C112532">
                    <nciodm:CDISCSynonym>AQ01-Chest Upset at Friend House</nciodm:CDISCSynonym>
                    <nciodm:CDISCDefinition>Airway Questionnaire 20 - Do you worry when going to a friend's house that there might be something there that will upset your chest?</nciodm:CDISCDefinition>
                    <nciodm:PreferredTerm>AQ20 - Worry When Going to Friend House Something Will Upset Your Chest</nciodm:PreferredTerm>
                </EnumeratedItem>
                <EnumeratedItem CodedValue="AQ01-Cough Often During Day" nciodm:ExtCodeID="C112529">
                    <nciodm:CDISCSynonym>AQ01-Cough Often During Day</nciodm:CDISCSynonym>
                    <nciodm:CDISCDefinition>Airway Questionnaire 20 - Do you cough often during the day?</nciodm:CDISCDefinition>
                    <nciodm:PreferredTerm>AQ20 - Cough Often During the Day</nciodm:PreferredTerm>
                </EnumeratedItem>
                <EnumeratedItem CodedValue="AQ01-Difficulty Getting Around the House" nciodm:ExtCodeID="C112538">
                    <nciodm:CDISCSynonym>AQ01-Difficulty Getting Around the House</nciodm:CDISCSynonym>
                    <nciodm:CDISCDefinition>Airway Questionnaire 20 - Are there times when you have difficulty getting around the house because of your chest trouble?</nciodm:CDISCDefinition>
                    <nciodm:PreferredTerm>AQ20 - Difficulty Getting Around the House Because of Chest Trouble</nciodm:PreferredTerm>
                </EnumeratedItem>
                <EnumeratedItem CodedValue="AQ01-Drained After a Cold" nciodm:ExtCodeID="C112546">
                    <nciodm:CDISCSynonym>AQ01-Drained After a Cold</nciodm:CDISCSynonym>
                    <nciodm:CDISCDefinition>Airway Questionnaire 20 - Do you feel drained after a cold because of your chest trouble?</nciodm:CDISCDefinition>
                    <nciodm:PreferredTerm>AQ20 - Feel Drained After a Cold Because of Chest Trouble</nciodm:PreferredTerm>
                </EnumeratedItem>
                <EnumeratedItem CodedValue="AQ01-Emotional Upset Worse Chest Trouble" nciodm:ExtCodeID="C112537">
                    <nciodm:CDISCSynonym>AQ01-Emotional Upset Worse Chest Trouble</nciodm:CDISCSynonym>
                    <nciodm:CDISCDefinition>Airway Questionnaire 20 - Does getting emotionally upset make your chest trouble worse?</nciodm:CDISCDefinition>
                    <nciodm:PreferredTerm>AQ20 - Getting Emotionally Upset Make Chest Trouble Worse</nciodm:PreferredTerm>
                </EnumeratedItem>
                <EnumeratedItem CodedValue="AQ01-Feel Restless Due to Chest Trouble" nciodm:ExtCodeID="C112530">
                    <nciodm:CDISCSynonym>AQ01-Feel Restless Due to Chest Trouble</nciodm:CDISCSynonym>
                    <nciodm:CDISCDefinition>Airway Questionnaire 20 - Does your chest trouble often make you feel restless?</nciodm:CDISCDefinition>
                    <nciodm:PreferredTerm>AQ20 - Chest Trouble Make You Feel Restless</nciodm:PreferredTerm>
                </EnumeratedItem>
                <EnumeratedItem CodedValue="AQ01-Feeling of Chest Heaviness" nciodm:ExtCodeID="C112547">
                    <nciodm:CDISCSynonym>AQ01-Feeling of Chest Heaviness</nciodm:CDISCSynonym>
                    <nciodm:CDISCDefinition>Airway Questionnaire 20 - Do you have a feeling of chest heaviness?</nciodm:CDISCDefinition>
                    <nciodm:PreferredTerm>AQ20 - Feeling of Chest Heaviness</nciodm:PreferredTerm>
                </EnumeratedItem>
                <EnumeratedItem CodedValue="AQ01-Full Life Limited by Chest Trouble" nciodm:ExtCodeID="C112545">
                    <nciodm:CDISCSynonym>AQ01-Full Life Limited by Chest Trouble</nciodm:CDISCSynonym>
                    <nciodm:CDISCDefinition>Airway Questionnaire 20 - Do you think the fullness of your life is limited by your chest trouble?</nciodm:CDISCDefinition>
                    <nciodm:PreferredTerm>AQ20 - Fullness of Life is Limited by Chest Trouble</nciodm:PreferredTerm>
                </EnumeratedItem>
                <EnumeratedItem CodedValue="AQ01-Gardening Make You Breathless" nciodm:ExtCodeID="C112531">
                    <nciodm:CDISCSynonym>AQ01-Gardening Make You Breathless</nciodm:CDISCSynonym>
                    <nciodm:CDISCDefinition>Airway Questionnaire 20 - Does gardening make you breathless?</nciodm:CDISCDefinition>
                    <nciodm:PreferredTerm>AQ20 - Gardening Make You Breathless</nciodm:PreferredTerm>
                </EnumeratedItem>
                <EnumeratedItem CodedValue="AQ01-Get Breathless Doing Housework" nciodm:ExtCodeID="C112541">
                    <nciodm:CDISCSynonym>AQ01-Get Breathless Doing Housework</nciodm:CDISCSynonym>
                    <nciodm:CDISCDefinition>Airway Questionnaire 20 - Do you get breathless doing housework?</nciodm:CDISCDefinition>
                    <nciodm:PreferredTerm>AQ20 - Get Breathless Doing Housework</nciodm:PreferredTerm>
                </EnumeratedItem>
                <EnumeratedItem CodedValue="AQ01-Go Home Sooner Than Others" nciodm:ExtCodeID="C112542">
                    <nciodm:CDISCSynonym>AQ01-Go Home Sooner Than Others</nciodm:CDISCSynonym>
                    <nciodm:CDISCDefinition>Airway Questionnaire 20 - Does your chest trouble make you go home sooner than others after a night out?</nciodm:CDISCDefinition>
                    <nciodm:PreferredTerm>AQ20 - Chest Trouble Make You Go Home Sooner Than Others</nciodm:PreferredTerm>
                </EnumeratedItem>
                <EnumeratedItem CodedValue="AQ01-Impatient Due to Chest Trouble" nciodm:ExtCodeID="C112544">
                    <nciodm:CDISCSynonym>AQ01-Impatient Due to Chest Trouble</nciodm:CDISCSynonym>
                    <nciodm:CDISCDefinition>Airway Questionnaire 20 - Does your chest trouble often make you feel impatient?</nciodm:CDISCDefinition>
                    <nciodm:PreferredTerm>AQ20 - Chest Trouble Make You Feel Impatient</nciodm:PreferredTerm>
                </EnumeratedItem>
                <EnumeratedItem CodedValue="AQ01-Long Term Effects of Drugs" nciodm:ExtCodeID="C112536">
                    <nciodm:CDISCSynonym>AQ01-Long Term Effects of Drugs</nciodm:CDISCSynonym>
                    <nciodm:CDISCDefinition>Airway Questionnaire 20 - Do you worry about the long term effects of the drugs you take for your chest trouble?</nciodm:CDISCDefinition>
                    <nciodm:PreferredTerm>AQ20 - Worry About Long Term Effects of Drugs for Chest Trouble</nciodm:PreferredTerm>
                </EnumeratedItem>
                <EnumeratedItem CodedValue="AQ01-Partner Upset by Your Chest Trouble" nciodm:ExtCodeID="C112534">
                    <nciodm:CDISCSynonym>AQ01-Partner Upset by Your Chest Trouble</nciodm:CDISCSynonym>
                    <nciodm:CDISCDefinition>Airway Questionnaire 20 - Does your partner find your chest trouble upsetting?</nciodm:CDISCDefinition>
                    <nciodm:PreferredTerm>AQ20 - Partner Find Your Chest Trouble Upsetting</nciodm:PreferredTerm>
                </EnumeratedItem>
                <EnumeratedItem CodedValue="AQ01-Worry About Chest Trouble" nciodm:ExtCodeID="C112548">
                    <nciodm:CDISCSynonym>AQ01-Worry About Chest Trouble</nciodm:CDISCSynonym>
                    <nciodm:CDISCDefinition>Airway Questionnaire 20 - Do you worry a lot about your chest trouble?</nciodm:CDISCDefinition>
                    <nciodm:PreferredTerm>AQ20 - Worry a Lot About Chest Trouble</nciodm:PreferredTerm>
                </EnumeratedItem>
                <nciodm:CDISCSubmissionValue>AQ20 TEST</nciodm:CDISCSubmissionValue>
                <nciodm:CDISCSynonym>Airway Questionnaire 20 Test Name</nciodm:CDISCSynonym>
                <nciodm:PreferredTerm>CDISC Questionnaire AQ20 Test Name Terminology</nciodm:PreferredTerm>
            </CodeList>
            <CodeList OID="CL.C100132.ADAS-Cog CDISC Version TESTCD" Name="Alzheimer's Disease Assessment Scale - Cognitive CDISC Version Test Code" DataType="text" nciodm:ExtCodeID="C100132" nciodm:CodeListExtensible="No">
                <Description>
                    <TranslatedText xml:lang="en">ADAS-Cog CDISC Version test code.</TranslatedText>
                </Description>
                <EnumeratedItem CodedValue="ADCCMD" nciodm:ExtCodeID="C100209">
                    <nciodm:CDISCSynonym>Commands</nciodm:CDISCSynonym>
                    <nciodm:CDISCDefinition>Alzheimer's Disease Assessment Scale-Cognitive CDISC Version - Summary score for commands.</nciodm:CDISCDefinition>
                    <nciodm:PreferredTerm>CDISC ADAS-Cog - Commands Summary Score</nciodm:PreferredTerm>
                </EnumeratedItem>
                <EnumeratedItem CodedValue="ADCCMD01" nciodm:ExtCodeID="C100210">
                    <nciodm:CDISCSynonym>Commands: Fist</nciodm:CDISCSynonym>
                    <nciodm:CDISCDefinition>Alzheimer's Disease Assessment Scale-Cognitive CDISC Version - Commands task for making a fist.</nciodm:CDISCDefinition>
                    <nciodm:PreferredTerm>CDISC ADAS-Cog - Commands: Fist</nciodm:PreferredTerm>
                </EnumeratedItem>
                <EnumeratedItem CodedValue="ADCCMD02" nciodm:ExtCodeID="C100211">
                    <nciodm:CDISCSynonym>Commands: Ceiling</nciodm:CDISCSynonym>
                    <nciodm:CDISCDefinition>Alzheimer's Disease Assessment Scale-Cognitive CDISC Version - Commands task for pointing to the ceiling then to the floor.</nciodm:CDISCDefinition>
                    <nciodm:PreferredTerm>CDISC ADAS-Cog - Commands: Ceiling</nciodm:PreferredTerm>
                </EnumeratedItem>
                <EnumeratedItem CodedValue="ADCCMD03" nciodm:ExtCodeID="C100212">
                    <nciodm:CDISCSynonym>Commands: Pencil</nciodm:CDISCSynonym>
                    <nciodm:CDISCDefinition>Alzheimer's Disease Assessment Scale-Cognitive CDISC Version - Commands task for put the pencil on top of the card and then put it back.</nciodm:CDISCDefinition>
                    <nciodm:PreferredTerm>CDISC ADAS-Cog - Commands: Pencil</nciodm:PreferredTerm>
                </EnumeratedItem>
                <EnumeratedItem CodedValue="ADCCMD04" nciodm:ExtCodeID="C100213">
                    <nciodm:CDISCSynonym>Commands: Watch</nciodm:CDISCSynonym>
                    <nciodm:CDISCDefinition>Alzheimer's Disease Assessment Scale-Cognitive CDISC Version - Commands task for put the watch on the other side of the pencil and then turn over the card.</nciodm:CDISCDefinition>
                    <nciodm:PreferredTerm>CDISC ADAS-Cog - Commands: Watch</nciodm:PreferredTerm>
                </EnumeratedItem>
                <EnumeratedItem CodedValue="ADCCMD05" nciodm:ExtCodeID="C100214">
                    <nciodm:CDISCSynonym>Commands: Shoulder</nciodm:CDISCSynonym>
                    <nciodm:CDISCDefinition>Alzheimer's Disease Assessment Scale-Cognitive CDISC Version - Commands task for tap each shoulder twice with two fingers keeping your eyes shut.</nciodm:CDISCDefinition>
                    <nciodm:PreferredTerm>CDISC ADAS-Cog - Commands: Shoulder</nciodm:PreferredTerm>
                </EnumeratedItem>
                <EnumeratedItem CodedValue="ADCCMP" nciodm:ExtCodeID="C100278">
                    <nciodm:CDISCSynonym>Comprehension</nciodm:CDISCSynonym>
                    <nciodm:CDISCDefinition>Alzheimer's Disease Assessment Scale-Cognitive CDISC Version - Ability to comprehend speech.</nciodm:CDISCDefinition>
                    <nciodm:PreferredTerm>CDISC ADAS-Cog - Comprehension</nciodm:PreferredTerm>
                </EnumeratedItem>
                <EnumeratedItem CodedValue="ADCCON" nciodm:ExtCodeID="C100279">
                    <nciodm:CDISCSynonym>Concentration/Distractibility</nciodm:CDISCSynonym>
                    <nciodm:CDISCDefinition>Alzheimer's Disease Assessment Scale-Cognitive CDISC Version - Ability to concentrate or easily be distracted.</nciodm:CDISCDefinition>
                    <nciodm:PreferredTerm>CDISC ADAS-Cog - Concentration/Distractibility</nciodm:PreferredTerm>
                </EnumeratedItem>
                <EnumeratedItem CodedValue="ADCCP" nciodm:ExtCodeID="C100226">
                    <nciodm:CDISCSynonym>Constructional Praxis</nciodm:CDISCSynonym>
                    <nciodm:CDISCDefinition>Alzheimer's Disease Assessment Scale-Cognitive CDISC Version - Summary score for constructional praxis.</nciodm:CDISCDefinition>
                    <nciodm:PreferredTerm>CDISC ADAS-Cog - Constructional Praxis Summary Score</nciodm:PreferredTerm>
                </EnumeratedItem>
                <EnumeratedItem CodedValue="ADCCP01" nciodm:ExtCodeID="C100227">
                    <nciodm:CDISCSynonym>Constructional Praxis: Circle</nciodm:CDISCSynonym>
                    <nciodm:CDISCDefinition>Alzheimer's Disease Assessment Scale-Cognitive CDISC Version - Constructional praxis task for copying a circle.</nciodm:CDISCDefinition>
                    <nciodm:PreferredTerm>CDISC ADAS-Cog - Constructional Praxis: Circle</nciodm:PreferredTerm>
                </EnumeratedItem>
                <EnumeratedItem CodedValue="ADCCP02" nciodm:ExtCodeID="C100228">
                    <nciodm:CDISCSynonym>Constructional Praxis: 2 Rectangles</nciodm:CDISCSynonym>
                    <nciodm:CDISCDefinition>Alzheimer's Disease Assessment Scale-Cognitive CDISC Version - Constructional praxis task for copying two overlapping rectangles.</nciodm:CDISCDefinition>
                    <nciodm:PreferredTerm>CDISC ADAS-Cog - Constructional Praxis: 2 Rectangles</nciodm:PreferredTerm>
                </EnumeratedItem>
                <EnumeratedItem CodedValue="ADCCP03" nciodm:ExtCodeID="C100229">
                    <nciodm:CDISCSynonym>Constructional Praxis: Diamond</nciodm:CDISCSynonym>
                    <nciodm:CDISCDefinition>Alzheimer's Disease Assessment Scale-Cognitive CDISC Version - Constructional praxis task for copying a diamond.</nciodm:CDISCDefinition>
                    <nciodm:PreferredTerm>CDISC ADAS-Cog - Constructional Praxis: Diamond</nciodm:PreferredTerm>
                </EnumeratedItem>
                <EnumeratedItem CodedValue="ADCCP04" nciodm:ExtCodeID="C100230">
                    <nciodm:CDISCSynonym>Constructional Praxis: Cube</nciodm:CDISCSynonym>
                    <nciodm:CDISCDefinition>Alzheimer's Disease Assessment Scale-Cognitive CDISC Version - Constructional praxis task for copying a cube.</nciodm:CDISCDefinition>
                    <nciodm:PreferredTerm>CDISC ADAS-Cog - Constructional Praxis: Cube</nciodm:PreferredTerm>
                </EnumeratedItem>
                <EnumeratedItem CodedValue="ADCCPS" nciodm:ExtCodeID="C100231">
                    <nciodm:CDISCSynonym>Attempt to Draw</nciodm:CDISCSynonym>
                    <nciodm:CDISCDefinition>Alzheimer's Disease Assessment Scale-Cognitive CDISC Version - Constructional praxis attempted to draw, but drew no forms correctly.</nciodm:CDISCDefinition>
                    <nciodm:PreferredTerm>CDISC ADAS-Cog - Attempt to Draw</nciodm:PreferredTerm>
                </EnumeratedItem>
                <EnumeratedItem CodedValue="ADCDIF" nciodm:ExtCodeID="C100277">
                    <nciodm:CDISCSynonym>Word Finding Difficulty in Spont Speech</nciodm:CDISCSynonym>
                    <nciodm:CDISCDefinition>Alzheimer's Disease Assessment Scale-Cognitive CDISC Version - Difficulty finding the desired word in spontaneous speech.</nciodm:CDISCDefinition>
                    <nciodm:PreferredTerm>CDISC ADAS-Cog - Word Difficulty in Spontaneous Speech</nciodm:PreferredTerm>
                </EnumeratedItem>
                <EnumeratedItem CodedValue="ADCDRL" nciodm:ExtCodeID="C100215">
                    <nciodm:CDISCSynonym>Delayed Word Recall</nciodm:CDISCSynonym>
                    <nciodm:CDISCDefinition>Alzheimer's Disease Assessment Scale-Cognitive CDISC Version - Summary score for delayed word recall.</nciodm:CDISCDefinition>
                    <nciodm:PreferredTerm>CDISC ADAS-Cog - Delayed Word Recall Summary Score</nciodm:PreferredTerm>
                </EnumeratedItem>
                <EnumeratedItem CodedValue="ADCDRL01" nciodm:ExtCodeID="C100216">
                    <nciodm:CDISCSynonym>Delayed Word Recall: Word [1]</nciodm:CDISCSynonym>
                    <nciodm:CDISCDefinition>Alzheimer's Disease Assessment Scale-Cognitive CDISC Version - Delayed word recall task for word 1.</nciodm:CDISCDefinition>
                    <nciodm:PreferredTerm>CDISC ADAS-Cog - Delayed Word Recall: Word 1</nciodm:PreferredTerm>
                </EnumeratedItem>
                <EnumeratedItem CodedValue="ADCDRL02" nciodm:ExtCodeID="C100217">
                    <nciodm:CDISCSynonym>Delayed Word Recall: Word [2]</nciodm:CDISCSynonym>
                    <nciodm:CDISCDefinition>Alzheimer's Disease Assessment Scale-Cognitive CDISC Version - Delayed word recall task for word 2.</nciodm:CDISCDefinition>
                    <nciodm:PreferredTerm>CDISC ADAS-Cog - Delayed Word Recall: Word 2</nciodm:PreferredTerm>
                </EnumeratedItem>
                <EnumeratedItem CodedValue="ADCDRL03" nciodm:ExtCodeID="C100218">
                    <nciodm:CDISCSynonym>Delayed Word Recall: Word [3]</nciodm:CDISCSynonym>
                    <nciodm:CDISCDefinition>Alzheimer's Disease Assessment Scale-Cognitive CDISC Version - Delayed word recall task for word 3.</nciodm:CDISCDefinition>
                    <nciodm:PreferredTerm>CDISC ADAS-Cog - Delayed Word Recall: Word 3</nciodm:PreferredTerm>
                </EnumeratedItem>
                <EnumeratedItem CodedValue="ADCDRL04" nciodm:ExtCodeID="C100219">
                    <nciodm:CDISCSynonym>Delayed Word Recall: Word [4]</nciodm:CDISCSynonym>
                    <nciodm:CDISCDefinition>Alzheimer's Disease Assessment Scale-Cognitive CDISC Version - Delayed word recall task for word 4.</nciodm:CDISCDefinition>
                    <nciodm:PreferredTerm>CDISC ADAS-Cog - Delayed Word Recall: Word 4</nciodm:PreferredTerm>
                </EnumeratedItem>
                <EnumeratedItem CodedValue="ADCDRL05" nciodm:ExtCodeID="C100220">
                    <nciodm:CDISCSynonym>Delayed Word Recall: Word [5]</nciodm:CDISCSynonym>
                    <nciodm:CDISCDefinition>Alzheimer's Disease Assessment Scale-Cognitive CDISC Version - Delayed word recall task for word 5.</nciodm:CDISCDefinition>
                    <nciodm:PreferredTerm>CDISC ADAS-Cog - Delayed Word Recall: Word 5</nciodm:PreferredTerm>
                </EnumeratedItem>
                <EnumeratedItem CodedValue="ADCDRL06" nciodm:ExtCodeID="C100221">
                    <nciodm:CDISCSynonym>Delayed Word Recall: Word [6]</nciodm:CDISCSynonym>
                    <nciodm:CDISCDefinition>Alzheimer's Disease Assessment Scale-Cognitive CDISC Version - Delayed word recall task for word 6.</nciodm:CDISCDefinition>
                    <nciodm:PreferredTerm>CDISC ADAS-Cog - Delayed Word Recall: Word 6</nciodm:PreferredTerm>
                </EnumeratedItem>
                <EnumeratedItem CodedValue="ADCDRL07" nciodm:ExtCodeID="C100222">
                    <nciodm:CDISCSynonym>Delayed Word Recall: Word [7]</nciodm:CDISCSynonym>
                    <nciodm:CDISCDefinition>Alzheimer's Disease Assessment Scale-Cognitive CDISC Version - Delayed word recall task for word 7.</nciodm:CDISCDefinition>
                    <nciodm:PreferredTerm>CDISC ADAS-Cog - Delayed Word Recall: Word 7</nciodm:PreferredTerm>
                </EnumeratedItem>
                <EnumeratedItem CodedValue="ADCDRL08" nciodm:ExtCodeID="C100223">
                    <nciodm:CDISCSynonym>Delayed Word Recall: Word [8]</nciodm:CDISCSynonym>
                    <nciodm:CDISCDefinition>Alzheimer's Disease Assessment Scale-Cognitive CDISC Version - Delayed word recall task for word 8.</nciodm:CDISCDefinition>
                    <nciodm:PreferredTerm>CDISC ADAS-Cog - Delayed Word Recall: Word 8</nciodm:PreferredTerm>
                </EnumeratedItem>
                <EnumeratedItem CodedValue="ADCDRL09" nciodm:ExtCodeID="C100224">
                    <nciodm:CDISCSynonym>Delayed Word Recall: Word [9]</nciodm:CDISCSynonym>
                    <nciodm:CDISCDefinition>Alzheimer's Disease Assessment Scale-Cognitive CDISC Version - Delayed word recall task for word 9.</nciodm:CDISCDefinition>
                    <nciodm:PreferredTerm>CDISC ADAS-Cog - Delayed Word Recall: Word 9</nciodm:PreferredTerm>
                </EnumeratedItem>
                <EnumeratedItem CodedValue="ADCDRL10" nciodm:ExtCodeID="C100225">
                    <nciodm:CDISCSynonym>Delayed Word Recall: Word [10]</nciodm:CDISCSynonym>
                    <nciodm:CDISCDefinition>Alzheimer's Disease Assessment Scale-Cognitive CDISC Version - Delayed word recall task for word 10.</nciodm:CDISCDefinition>
                    <nciodm:PreferredTerm>CDISC ADAS-Cog - Delayed Word Recall: Word 10</nciodm:PreferredTerm>
                </EnumeratedItem>
                <EnumeratedItem CodedValue="ADCIP" nciodm:ExtCodeID="C100232">
                    <nciodm:CDISCSynonym>Ideational Praxis</nciodm:CDISCSynonym>
                    <nciodm:CDISCDefinition>Alzheimer's Disease Assessment Scale-Cognitive CDISC Version - Summary score for ideational praxis.</nciodm:CDISCDefinition>
                    <nciodm:PreferredTerm>CDISC ADAS-Cog - Ideational Praxis Summary Score</nciodm:PreferredTerm>
                </EnumeratedItem>
                <EnumeratedItem CodedValue="ADCIP01" nciodm:ExtCodeID="C100233">
                    <nciodm:CDISCSynonym>Ideational Praxis: Fold</nciodm:CDISCSynonym>
                    <nciodm:CDISCDefinition>Alzheimer's Disease Assessment Scale-Cognitive CDISC Version - Ideational praxis task for folding the paper.</nciodm:CDISCDefinition>
                    <nciodm:PreferredTerm>CDISC ADAS-Cog - Ideational Praxis: Fold</nciodm:PreferredTerm>
                </EnumeratedItem>
                <EnumeratedItem CodedValue="ADCIP02" nciodm:ExtCodeID="C100234">
                    <nciodm:CDISCSynonym>Ideational Praxis: Insert</nciodm:CDISCSynonym>
                    <nciodm:CDISCDefinition>Alzheimer's Disease Assessment Scale-Cognitive CDISC Version - Ideational praxis task for put the paper in the envelop.</nciodm:CDISCDefinition>
                    <nciodm:PreferredTerm>CDISC ADAS-Cog - Ideational Praxis: Insert</nciodm:PreferredTerm>
                </EnumeratedItem>
                <EnumeratedItem CodedValue="ADCIP03" nciodm:ExtCodeID="C100235">
                    <nciodm:CDISCSynonym>Ideational Praxis: Seal</nciodm:CDISCSynonym>
                    <nciodm:CDISCDefinition>Alzheimer's Disease Assessment Scale-Cognitive CDISC Version - Ideational praxis task for seal the envelop.</nciodm:CDISCDefinition>
                    <nciodm:PreferredTerm>CDISC ADAS-Cog - Ideational Praxis: Seal</nciodm:PreferredTerm>
                </EnumeratedItem>
                <EnumeratedItem CodedValue="ADCIP04" nciodm:ExtCodeID="C100236">
                    <nciodm:CDISCSynonym>Ideational Praxis: Address</nciodm:CDISCSynonym>
                    <nciodm:CDISCDefinition>Alzheimer's Disease Assessment Scale-Cognitive CDISC Version - Ideational praxis task for address the envelop to yourself.</nciodm:CDISCDefinition>
                    <nciodm:PreferredTerm>CDISC ADAS-Cog - Ideational Praxis: Address</nciodm:PreferredTerm>
                </EnumeratedItem>
                <EnumeratedItem CodedValue="ADCIP05" nciodm:ExtCodeID="C100237">
                    <nciodm:CDISCSynonym>Ideational Praxis: Stamp</nciodm:CDISCSynonym>
                    <nciodm:CDISCDefinition>Alzheimer's Disease Assessment Scale-Cognitive CDISC Version - Ideational praxis task for showing where the stamp goes.</nciodm:CDISCDefinition>
                    <nciodm:PreferredTerm>CDISC ADAS-Cog - Ideational Praxis: Stamp</nciodm:PreferredTerm>
                </EnumeratedItem>
                <EnumeratedItem CodedValue="ADCMZ" nciodm:ExtCodeID="C100284">
                    <nciodm:CDISCSynonym>Executive Function Maze</nciodm:CDISCSynonym>
                    <nciodm:CDISCDefinition>Alzheimer's Disease Assessment Scale-Cognitive CDISC Version - Summary score for the executive function maze tasks.</nciodm:CDISCDefinition>
                    <nciodm:PreferredTerm>CDISC ADAS-Cog - Executive Function Maze Summary Score</nciodm:PreferredTerm>
                </EnumeratedItem>
                <EnumeratedItem CodedValue="ADCMZ01" nciodm:ExtCodeID="C100285">
                    <nciodm:CDISCSynonym>Executive Function Maze: Errors</nciodm:CDISCSynonym>
                    <nciodm:CDISCDefinition>Alzheimer's Disease Assessment Scale-Cognitive CDISC Version - Number of errors during the executive function maze task.</nciodm:CDISCDefinition>
                    <nciodm:PreferredTerm>CDISC ADAS-Cog - Executive Function Maze: Errors</nciodm:PreferredTerm>
                </EnumeratedItem>
                <EnumeratedItem CodedValue="ADCMZ02" nciodm:ExtCodeID="C100286">
                    <nciodm:CDISCSynonym>Executive Function Maze: Time</nciodm:CDISCSynonym>
                    <nciodm:CDISCDefinition>Alzheimer's Disease Assessment Scale-Cognitive CDISC Version - The time in seconds stored in ISO 8601 time for the executive function maze task.</nciodm:CDISCDefinition>
                    <nciodm:PreferredTerm>CDISC ADAS-Cog - Executive Function Maze: Time</nciodm:PreferredTerm>
                </EnumeratedItem>
                <EnumeratedItem CodedValue="ADCNC" nciodm:ExtCodeID="C100280">
                    <nciodm:CDISCSynonym>Number Cancellation</nciodm:CDISCSynonym>
                    <nciodm:CDISCDefinition>Alzheimer's Disease Assessment Scale-Cognitive CDISC Version - Summary score for the number cancellation tasks.</nciodm:CDISCDefinition>
                    <nciodm:PreferredTerm>CDISC ADAS-Cog - Number Cancellation Summary Score</nciodm:PreferredTerm>
                </EnumeratedItem>
                <EnumeratedItem CodedValue="ADCNC01" nciodm:ExtCodeID="C100281">
                    <nciodm:CDISCSynonym>Number Cancellation: Correct</nciodm:CDISCSynonym>
                    <nciodm:CDISCDefinition>Alzheimer's Disease Assessment Scale-Cognitive CDISC Version - Number of targets hit during the number cancellation task.</nciodm:CDISCDefinition>
                    <nciodm:PreferredTerm>CDISC ADAS-Cog - Number Cancellation: Correct</nciodm:PreferredTerm>
                </EnumeratedItem>
                <EnumeratedItem CodedValue="ADCNC02" nciodm:ExtCodeID="C100282">
                    <nciodm:CDISCSynonym>Number Cancellation: Errors</nciodm:CDISCSynonym>
                    <nciodm:CDISCDefinition>Alzheimer's Disease Assessment Scale-Cognitive CDISC Version - Number of errors during the number cancellation task.</nciodm:CDISCDefinition>
                    <nciodm:PreferredTerm>CDISC ADAS-Cog - Number Cancellation: Errors</nciodm:PreferredTerm>
                </EnumeratedItem>
                <EnumeratedItem CodedValue="ADCNC03" nciodm:ExtCodeID="C100283">
                    <nciodm:CDISCSynonym>Number Cancellation: Remind</nciodm:CDISCSynonym>
                    <nciodm:CDISCDefinition>Alzheimer's Disease Assessment Scale-Cognitive CDISC Version - Number of times reminded for the number cancellation task.</nciodm:CDISCDefinition>
                    <nciodm:PreferredTerm>CDISC ADAS-Cog - Number Cancellation: Remind</nciodm:PreferredTerm>
                </EnumeratedItem>
                <EnumeratedItem CodedValue="ADCOF" nciodm:ExtCodeID="C100191">
                    <nciodm:CDISCSynonym>Naming Objects and Fingers</nciodm:CDISCSynonym>
                    <nciodm:CDISCDefinition>Alzheimer's Disease Assessment Scale-Cognitive CDISC Version - Naming task summary score for object and fingers.</nciodm:CDISCDefinition>
                    <nciodm:PreferredTerm>CDISC ADAS-Cog - Naming Objects and Fingers Summary Score</nciodm:PreferredTerm>
                </EnumeratedItem>
                <EnumeratedItem CodedValue="ADCOFF01" nciodm:ExtCodeID="C100204">
                    <nciodm:CDISCSynonym>Naming Objects and Fingers: Thumb</nciodm:CDISCSynonym>
                    <nciodm:CDISCDefinition>Alzheimer's Disease Assessment Scale-Cognitive CDISC Version - Naming task for fingers of the dominant hand, thumb.</nciodm:CDISCDefinition>
                    <nciodm:PreferredTerm>CDISC ADAS-Cog - Naming Objects and Fingers: Thumb</nciodm:PreferredTerm>
                </EnumeratedItem>
                <EnumeratedItem CodedValue="ADCOFF02" nciodm:ExtCodeID="C100205">
                    <nciodm:CDISCSynonym>Naming Objects and Fingers: Pointer</nciodm:CDISCSynonym>
                    <nciodm:CDISCDefinition>Alzheimer's Disease Assessment Scale-Cognitive CDISC Version - Naming task for fingers of the dominant hand, index, or pointer finger.</nciodm:CDISCDefinition>
                    <nciodm:PreferredTerm>CDISC ADAS-Cog - Naming Objects and Fingers: Pointer</nciodm:PreferredTerm>
                </EnumeratedItem>
                <EnumeratedItem CodedValue="ADCOFF03" nciodm:ExtCodeID="C100206">
                    <nciodm:CDISCSynonym>Naming Objects and Fingers: Middle</nciodm:CDISCSynonym>
                    <nciodm:CDISCDefinition>Alzheimer's Disease Assessment Scale-Cognitive CDISC Version - Naming task for fingers of the dominant hand, middle finger.</nciodm:CDISCDefinition>
                    <nciodm:PreferredTerm>CDISC ADAS-Cog - Naming Objects and Fingers: Middle</nciodm:PreferredTerm>
                </EnumeratedItem>
                <EnumeratedItem CodedValue="ADCOFF04" nciodm:ExtCodeID="C100207">
                    <nciodm:CDISCSynonym>Naming Objects and Fingers: Ring</nciodm:CDISCSynonym>
                    <nciodm:CDISCDefinition>Alzheimer's Disease Assessment Scale-Cognitive CDISC Version - Naming task for fingers of the dominant hand, ring finger.</nciodm:CDISCDefinition>
                    <nciodm:PreferredTerm>CDISC ADAS-Cog - Naming Objects and Fingers: Ring</nciodm:PreferredTerm>
                </EnumeratedItem>
                <EnumeratedItem CodedValue="ADCOFF05" nciodm:ExtCodeID="C100208">
                    <nciodm:CDISCSynonym>Naming Objects and Fingers: Pinky</nciodm:CDISCSynonym>
                    <nciodm:CDISCDefinition>Alzheimer's Disease Assessment Scale-Cognitive CDISC Version - Naming task for fingers of the dominant hand, little finger or pinky.</nciodm:CDISCDefinition>
                    <nciodm:PreferredTerm>CDISC ADAS-Cog - Naming Objects and Fingers: Pinky</nciodm:PreferredTerm>
                </EnumeratedItem>
                <EnumeratedItem CodedValue="ADCOFO01" nciodm:ExtCodeID="C100192">
                    <nciodm:CDISCSynonym>Naming Objects and Fingers: 1</nciodm:CDISCSynonym>
                    <nciodm:CDISCDefinition>Alzheimer's Disease Assessment Scale-Cognitive CDISC Version - Naming task for object 1.</nciodm:CDISCDefinition>
                    <nciodm:PreferredTerm>CDISC ADAS-Cog - Naming Objects and Fingers: 1</nciodm:PreferredTerm>
                </EnumeratedItem>
                <EnumeratedItem CodedValue="ADCOFO02" nciodm:ExtCodeID="C100193">
                    <nciodm:CDISCSynonym>Naming Objects and Fingers: 2</nciodm:CDISCSynonym>
                    <nciodm:CDISCDefinition>Alzheimer's Disease Assessment Scale-Cognitive CDISC Version - Naming task for object 2.</nciodm:CDISCDefinition>
                    <nciodm:PreferredTerm>CDISC ADAS-Cog - Naming Objects and Fingers: 2</nciodm:PreferredTerm>
                </EnumeratedItem>
                <EnumeratedItem CodedValue="ADCOFO03" nciodm:ExtCodeID="C100194">
                    <nciodm:CDISCSynonym>Naming Objects and Fingers: 3</nciodm:CDISCSynonym>
                    <nciodm:CDISCDefinition>Alzheimer's Disease Assessment Scale-Cognitive CDISC Version - Naming task for object 3.</nciodm:CDISCDefinition>
                    <nciodm:PreferredTerm>CDISC ADAS-Cog - Naming Objects and Fingers: 3</nciodm:PreferredTerm>
                </EnumeratedItem>
                <EnumeratedItem CodedValue="ADCOFO04" nciodm:ExtCodeID="C100195">
                    <nciodm:CDISCSynonym>Naming Objects and Fingers: 4</nciodm:CDISCSynonym>
                    <nciodm:CDISCDefinition>Alzheimer's Disease Assessment Scale-Cognitive CDISC Version - Naming task for object 4.</nciodm:CDISCDefinition>
                    <nciodm:PreferredTerm>CDISC ADAS-Cog - Naming Objects and Fingers: 4</nciodm:PreferredTerm>
                </EnumeratedItem>
                <EnumeratedItem CodedValue="ADCOFO05" nciodm:ExtCodeID="C100196">
                    <nciodm:CDISCSynonym>Naming Objects and Fingers: 5</nciodm:CDISCSynonym>
                    <nciodm:CDISCDefinition>Alzheimer's Disease Assessment Scale-Cognitive CDISC Version - Naming task for object 5.</nciodm:CDISCDefinition>
                    <nciodm:PreferredTerm>CDISC ADAS-Cog - Naming Objects and Fingers: 5</nciodm:PreferredTerm>
                </EnumeratedItem>
                <EnumeratedItem CodedValue="ADCOFO06" nciodm:ExtCodeID="C100197">
                    <nciodm:CDISCSynonym>Naming Objects and Fingers: 6</nciodm:CDISCSynonym>
                    <nciodm:CDISCDefinition>Alzheimer's Disease Assessment Scale-Cognitive CDISC Version - Naming task for object 6.</nciodm:CDISCDefinition>
                    <nciodm:PreferredTerm>CDISC ADAS-Cog - Naming Objects and Fingers: 6</nciodm:PreferredTerm>
                </EnumeratedItem>
                <EnumeratedItem CodedValue="ADCOFO07" nciodm:ExtCodeID="C100198">
                    <nciodm:CDISCSynonym>Naming Objects and Fingers: 7</nciodm:CDISCSynonym>
                    <nciodm:CDISCDefinition>Alzheimer's Disease Assessment Scale-Cognitive CDISC Version - Naming task for object 7.</nciodm:CDISCDefinition>
                    <nciodm:PreferredTerm>CDISC ADAS-Cog - Naming Objects and Fingers: 7</nciodm:PreferredTerm>
                </EnumeratedItem>
                <EnumeratedItem CodedValue="ADCOFO08" nciodm:ExtCodeID="C100199">
                    <nciodm:CDISCSynonym>Naming Objects and Fingers: 8</nciodm:CDISCSynonym>
                    <nciodm:CDISCDefinition>Alzheimer's Disease Assessment Scale-Cognitive CDISC Version - Naming task for object 8.</nciodm:CDISCDefinition>
                    <nciodm:PreferredTerm>CDISC ADAS-Cog - Naming Objects and Fingers: 8</nciodm:PreferredTerm>
                </EnumeratedItem>
                <EnumeratedItem CodedValue="ADCOFO09" nciodm:ExtCodeID="C100200">
                    <nciodm:CDISCSynonym>Naming Objects and Fingers: 9</nciodm:CDISCSynonym>
                    <nciodm:CDISCDefinition>Alzheimer's Disease Assessment Scale-Cognitive CDISC Version - Naming task for object 9.</nciodm:CDISCDefinition>
                    <nciodm:PreferredTerm>CDISC ADAS-Cog - Naming Objects and Fingers: 9</nciodm:PreferredTerm>
                </EnumeratedItem>
                <EnumeratedItem CodedValue="ADCOFO10" nciodm:ExtCodeID="C100201">
                    <nciodm:CDISCSynonym>Naming Objects and Fingers: 10</nciodm:CDISCSynonym>
                    <nciodm:CDISCDefinition>Alzheimer's Disease Assessment Scale-Cognitive CDISC Version - Naming task for object 10.</nciodm:CDISCDefinition>
                    <nciodm:PreferredTerm>CDISC ADAS-Cog - Naming Objects and Fingers: 10</nciodm:PreferredTerm>
                </EnumeratedItem>
                <EnumeratedItem CodedValue="ADCOFO11" nciodm:ExtCodeID="C100202">
                    <nciodm:CDISCSynonym>Naming Objects and Fingers: 11</nciodm:CDISCSynonym>
                    <nciodm:CDISCDefinition>Alzheimer's Disease Assessment Scale-Cognitive CDISC Version - Naming task for object 11.</nciodm:CDISCDefinition>
                    <nciodm:PreferredTerm>CDISC ADAS-Cog - Naming Objects and Fingers: 11</nciodm:PreferredTerm>
                </EnumeratedItem>
                <EnumeratedItem CodedValue="ADCOFO12" nciodm:ExtCodeID="C100203">
                    <nciodm:CDISCSynonym>Naming Objects and Fingers: 12</nciodm:CDISCSynonym>
                    <nciodm:CDISCDefinition>Alzheimer's Disease Assessment Scale-Cognitive CDISC Version - Naming task for object 12.</nciodm:CDISCDefinition>
                    <nciodm:PreferredTerm>CDISC ADAS-Cog - Naming Objects and Fingers: 12</nciodm:PreferredTerm>
                </EnumeratedItem>
                <EnumeratedItem CodedValue="ADCOR" nciodm:ExtCodeID="C100238">
                    <nciodm:CDISCSynonym>Orientation</nciodm:CDISCSynonym>
                    <nciodm:CDISCDefinition>Alzheimer's Disease Assessment Scale-Cognitive CDISC Version - Summary score for orientation.</nciodm:CDISCDefinition>
                    <nciodm:PreferredTerm>CDISC ADAS-Cog - Orientation Summary Score</nciodm:PreferredTerm>
                </EnumeratedItem>
                <EnumeratedItem CodedValue="ADCOR01" nciodm:ExtCodeID="C100239">
                    <nciodm:CDISCSynonym>Orientation: Full Name</nciodm:CDISCSynonym>
                    <nciodm:CDISCDefinition>Alzheimer's Disease Assessment Scale-Cognitive CDISC Version - Orientation task for knowing one's own full name.</nciodm:CDISCDefinition>
                    <nciodm:PreferredTerm>CDISC ADAS-Cog - Orientation: Full Name</nciodm:PreferredTerm>
                </EnumeratedItem>
                <EnumeratedItem CodedValue="ADCOR02" nciodm:ExtCodeID="C100240">
                    <nciodm:CDISCSynonym>Orientation: Month</nciodm:CDISCSynonym>
                    <nciodm:CDISCDefinition>Alzheimer's Disease Assessment Scale-Cognitive CDISC Version - Orientation task for knowing the current month.</nciodm:CDISCDefinition>
                    <nciodm:PreferredTerm>CDISC ADAS-Cog - Orientation: Month</nciodm:PreferredTerm>
                </EnumeratedItem>
                <EnumeratedItem CodedValue="ADCOR03" nciodm:ExtCodeID="C100241">
                    <nciodm:CDISCSynonym>Orientation: Date</nciodm:CDISCSynonym>
                    <nciodm:CDISCDefinition>Alzheimer's Disease Assessment Scale-Cognitive CDISC Version - Orientation task for knowing the current day.</nciodm:CDISCDefinition>
                    <nciodm:PreferredTerm>CDISC ADAS-Cog - Orientation: Date</nciodm:PreferredTerm>
                </EnumeratedItem>
                <EnumeratedItem CodedValue="ADCOR04" nciodm:ExtCodeID="C100242">
                    <nciodm:CDISCSynonym>Orientation: Year</nciodm:CDISCSynonym>
                    <nciodm:CDISCDefinition>Alzheimer's Disease Assessment Scale-Cognitive CDISC Version - Orientation task for knowing the current year.</nciodm:CDISCDefinition>
                    <nciodm:PreferredTerm>CDISC ADAS-Cog - Orientation: Year</nciodm:PreferredTerm>
                </EnumeratedItem>
                <EnumeratedItem CodedValue="ADCOR05" nciodm:ExtCodeID="C100243">
                    <nciodm:CDISCSynonym>Orientation: Day of Week</nciodm:CDISCSynonym>
                    <nciodm:CDISCDefinition>Alzheimer's Disease Assessment Scale-Cognitive CDISC Version - Orientation task for knowing the current day of the week.</nciodm:CDISCDefinition>
                    <nciodm:PreferredTerm>CDISC ADAS-Cog - Orientation: Day of Week</nciodm:PreferredTerm>
                </EnumeratedItem>
                <EnumeratedItem CodedValue="ADCOR06" nciodm:ExtCodeID="C100244">
                    <nciodm:CDISCSynonym>Orientation: Season</nciodm:CDISCSynonym>
                    <nciodm:CDISCDefinition>Alzheimer's Disease Assessment Scale-Cognitive CDISC Version - Orientation task for knowing the current season.</nciodm:CDISCDefinition>
                    <nciodm:PreferredTerm>CDISC ADAS-Cog - Orientation: Season</nciodm:PreferredTerm>
                </EnumeratedItem>
                <EnumeratedItem CodedValue="ADCOR07" nciodm:ExtCodeID="C100245">
                    <nciodm:CDISCSynonym>Orientation: Place</nciodm:CDISCSynonym>
                    <nciodm:CDISCDefinition>Alzheimer's Disease Assessment Scale-Cognitive CDISC Version - Orientation task for knowing the current place.</nciodm:CDISCDefinition>
                    <nciodm:PreferredTerm>CDISC ADAS-Cog - Orientation: Place</nciodm:PreferredTerm>
                </EnumeratedItem>
                <EnumeratedItem CodedValue="ADCOR08" nciodm:ExtCodeID="C100246">
                    <nciodm:CDISCSynonym>Orientation: Time</nciodm:CDISCSynonym>
                    <nciodm:CDISCDefinition>Alzheimer's Disease Assessment Scale-Cognitive CDISC Version - Orientation task for knowing the approximate current clock time.</nciodm:CDISCDefinition>
                    <nciodm:PreferredTerm>CDISC ADAS-Cog - Orientation: Time</nciodm:PreferredTerm>
                </EnumeratedItem>
