<?xml version="1.0" encoding="UTF-8"?>
<ODM xmlns="http://www.cdisc.org/ns/odm/v1.3"
     xmlns:xs="http://www.w3.org/2001/XMLSchema-instance"
     xmlns:nciodm="http://ncicb.nci.nih.gov/xml/odm/EVS/CDISC"
     xs:schemaLocation="http://www.nci.nih.gov/EVS/CDISC ../schema/controlledterminology1-0-0.xsd"
     FileType="Snapshot"
     FileOID="CDISC_CT.QS.2012-12-21"
     Granularity="Metadata"
     CreationDateTime="2012-12-18T15:58:25"
     AsOfDateTime="2012-12-21T00:00:00"
     ODMVersion="1.3.1"
     Originator="CDISC XML Technologies Team (SAS 9.03.01M2P08152012)"
     SourceSystem="NCI Thesaurus"
     SourceSystemVersion="2012-12-21">
  <Study OID="CDISC_CT.QS.2012-12-21">
    <GlobalVariables>
      <StudyName>CDISC QS Controlled Terminology</StudyName>
      <StudyDescription>CDISC QS Controlled Terminology, 2012-12-21</StudyDescription>
      <ProtocolName>CDISC QS Controlled Terminology</ProtocolName>
    </GlobalVariables>
    <MetaDataVersion OID="CDISC_CT_MetaDataVersion.QS.2012-12-21"
                     Name="CDISC QS Controlled Terminology"
                     Description="CDISC QS Controlled Terminology, 2012-12-21">
      <CodeList OID="CL.C100129.QSCAT" Name="Questionnaire Category" DataType="text" nciodm:ExtCodeID="C100129" nciodm:CodeListExtensible="Yes">
        <Description>
          <TranslatedText xml:lang="en">A grouping of observations within the Questionnaire domain.</TranslatedText>
        </Description>
        <EnumeratedItem CodedValue="ADAS-COG" nciodm:ExtCodeID="C100762">
          <nciodm:CDISCSynonym>ADC</nciodm:CDISCSynonym>
          <nciodm:CDISCDefinition>The CDISC version of the Alzheimer's Disease Assessment Scale-Cognitive (ADAS-Cog CDISC Version) containing 15 summary-level tests. This version is based on combining the total pool of ADAS-Cog tests that were observed during a review of multiple case report forms administered in clinical trials of Alzheimer's disease, as well as the CRF administered in the Alzheimer's Disease Neuroimaging Initiative (ADNI) observational study. (Modified from Mohs RC, Rosen WG, Davis KL. The Alzheimer's disease assessment scale: an instrument for assessing treatment efficacy. Psychopharmacol Bull 1983;19(3):448-450. Rosen WG, Mohs RC, Davis KL. A new rating scale for Alzheimer's disease. Am J Psychiatry 1984;141(11):1356-1364. Mohs RC, Knopman D, Petersen RC et al. Development of cognitive instruments for use in clinical trials of antidementia drugs: additions to the Alzheimer's Disease Assessment Scale that broaden its scope. The Alzheimer's Disease Cooperative Study. Alzheimer Dis Assoc Disord 1997;11 Suppl 2:S13-S21. Wouters H, van Gool WA, Schmand B, Lindeboom R. Revising the ADAS-cog for a more accurate assessment of cognitive impairment. Alzheimer Dis Assoc Disord 2008;22(3):236-244.).</nciodm:CDISCDefinition>
          <nciodm:PreferredTerm>Alzheimer's Disease Assessment Scale-Cognitive CDISC Version Questionnaire</nciodm:PreferredTerm>
        </EnumeratedItem>
        <EnumeratedItem CodedValue="BPI" nciodm:ExtCodeID="C100759">
          <nciodm:CDISCSynonym>BPI1</nciodm:CDISCSynonym>
          <nciodm:CDISCDefinition>Brief Pain Inventory (BPI) (copyright 1991 Charles S. Cleeland, PhD, Pain Research Group, All Right Reserved).</nciodm:CDISCDefinition>
          <nciodm:PreferredTerm>Brief Pain Inventory Questionnaire</nciodm:PreferredTerm>
        </EnumeratedItem>
        <EnumeratedItem CodedValue="BPI SHORT FORM" nciodm:ExtCodeID="C100760">
          <nciodm:CDISCSynonym>BPI2</nciodm:CDISCSynonym>
          <nciodm:CDISCDefinition>Brief Pain Inventory Short Form (BPI2) (copyright 1991 Charles S. Cleeland, PhD, Pain Research Group, All Right Reserved).</nciodm:CDISCDefinition>
          <nciodm:PreferredTerm>Brief Pain Inventory Short Form Questionnaire</nciodm:PreferredTerm>
        </EnumeratedItem>
        <EnumeratedItem CodedValue="BPRS-A" nciodm:ExtCodeID="C100761">
          <nciodm:CDISCSynonym>BPR01</nciodm:CDISCSynonym>
          <nciodm:CDISCDefinition>Brief Psychiatric Rating Scale - Anchored (BPRS-A) (Woerner MB, Mannuzza S, and Kane JM. Anchoring the BPRS: An Aid to Improved Reliability. Psychopharmacology Bulletin 1988; 24(1):112-117).</nciodm:CDISCDefinition>
          <nciodm:PreferredTerm>Brief Psychiatric Rating Scale A Questionnaire</nciodm:PreferredTerm>
        </EnumeratedItem>
        <EnumeratedItem CodedValue="CGI" nciodm:ExtCodeID="C100763">
          <nciodm:CDISCSynonym>CGI01</nciodm:CDISCSynonym>
          <nciodm:CDISCDefinition>Clinical Global Impression (CGI) (Guy W: ECDEU Assessment Manual for Psychopharmacology. Rockville, MD: U.S. Department of Health, Education, and Welfare; 1976).</nciodm:CDISCDefinition>
          <nciodm:PreferredTerm>Clinical Global Impression Questionnaire</nciodm:PreferredTerm>
        </EnumeratedItem>
        <EnumeratedItem CodedValue="C-SSRS BASELINE" nciodm:ExtCodeID="C100765">
          <nciodm:CDISCSynonym>CSS01</nciodm:CDISCSynonym>
          <nciodm:CDISCDefinition>Columbia-Suicidality Severity Rating Scale (C-SSRS) Baseline Version 2009-01-14 (Posner, K.; Brent, D.; Lucas, C.; Gould, M.; Stanley, B.; Brown, G.; Fisher, P.; Zelazny, J.; Burke, A.; Oquendo, M.; Mann, J.; copyright 2008 The Research Foundation for Mental Hygiene, Inc.).</nciodm:CDISCDefinition>
          <nciodm:PreferredTerm>Columbia-Suicidality Severity Rating Scale Questionnaire</nciodm:PreferredTerm>
        </EnumeratedItem>
        <EnumeratedItem CodedValue="COMM" nciodm:ExtCodeID="C100764">
          <nciodm:CDISCSynonym>COMM01</nciodm:CDISCSynonym>
          <nciodm:CDISCDefinition>Current Opioid Misuse Measure (COMM) (copyright 2010 Inflexxion, Inc., All rights reserved).</nciodm:CDISCDefinition>
          <nciodm:PreferredTerm>Current Opioid Misuse Measure Questionnaire</nciodm:PreferredTerm>
        </EnumeratedItem>
        <EnumeratedItem CodedValue="EQ-5D-3L" nciodm:ExtCodeID="C66957">
          <nciodm:CDISCSynonym>EQ5D01</nciodm:CDISCSynonym>
          <nciodm:CDISCDefinition>The EuroQol (European Quality of Life) Five Dimension Three Level Scale (EQ-5D-3L) (copyright 1990 EuroQol Group EQ-5D. All Rights Reserved).</nciodm:CDISCDefinition>
          <nciodm:PreferredTerm>EuroQOL Three Dimension Five Level Questionnaire</nciodm:PreferredTerm>
        </EnumeratedItem>
        <EnumeratedItem CodedValue="FPSR" nciodm:ExtCodeID="C100766">
          <nciodm:CDISCSynonym>FPSR1</nciodm:CDISCSynonym>
          <nciodm:CDISCDefinition>Faces Pain Scale - Revised (FPS-R) (Hicks CL, von Baeyer CL, van Korlaar I, Goodenough B. Faces Pain Scale-Revised: Toward a Common Metric in Pediatric Pain Measurement. Pain 2001; 93:173-183).</nciodm:CDISCDefinition>
          <nciodm:PreferredTerm>Faces Pain Scale Revised Questionnaire</nciodm:PreferredTerm>
        </EnumeratedItem>
        <EnumeratedItem CodedValue="HAMD 17" nciodm:ExtCodeID="C100767">
          <nciodm:CDISCSynonym>HAMD1</nciodm:CDISCSynonym>
          <nciodm:CDISCDefinition>The Hamilton Depression Rating Scale 17-Item (HAMD 17) (Hamilton M. Development of a rating scale for primary depressive illness. Br J Soc Clin Psychol 1967; 6(4):278-96).</nciodm:CDISCDefinition>
          <nciodm:PreferredTerm>Hamilton Depression Rating Scale 17 Item Questionnaire</nciodm:PreferredTerm>
        </EnumeratedItem>
        <EnumeratedItem CodedValue="KPS SCALE" nciodm:ExtCodeID="C100768">
          <nciodm:CDISCSynonym>KPSS</nciodm:CDISCSynonym>
          <nciodm:CDISCDefinition>The Karnofsky Performance Status Scale (KPSS) (Karnofsky DA, Burchenal JH. (1949). "The Clinical Evaluation of Chemotherapeutic Agents in Cancer." In: MacLeod CM (Ed), Evaluation of Chemotherapeutic Agents. Columbia Univ Press. Page 196).</nciodm:CDISCDefinition>
          <nciodm:PreferredTerm>Karnofsky Performance Status Scale Questionnaire</nciodm:PreferredTerm>
        </EnumeratedItem>
        <EnumeratedItem CodedValue="MNSI" nciodm:ExtCodeID="C100771">
          <nciodm:CDISCSynonym>MNSI1</nciodm:CDISCSynonym>
          <nciodm:CDISCDefinition>Michigan Neuropathy Screening Instrument (MNSI) (copyright University of Michigan, 2000, All rights reserved).</nciodm:CDISCDefinition>
          <nciodm:PreferredTerm>Michigan Neuropathy Screening Instrument Questionnaire</nciodm:PreferredTerm>
        </EnumeratedItem>
        <EnumeratedItem CodedValue="MMSE" nciodm:ExtCodeID="C100770">
          <nciodm:CDISCSynonym>MMS1</nciodm:CDISCSynonym>
          <nciodm:CDISCDefinition>The Mini-Mental State Examination (MMSE) (Folstein MF, Folstein SE, McHugh PR. 'Mini-Mental State': A practical method for grading the cognitive state of patients for the clinician. J Psychiatr Res. 1975; 12(3):189-98).</nciodm:CDISCDefinition>
          <nciodm:PreferredTerm>Mini-Mental State Examination Questionnaire</nciodm:PreferredTerm>
        </EnumeratedItem>
        <EnumeratedItem CodedValue="MDS-UPDRS" nciodm:ExtCodeID="C100769">
          <nciodm:CDISCSynonym>UPD2</nciodm:CDISCSynonym>
          <nciodm:CDISCDefinition>The Movement Disorder Society version of the Unified Parkinson's Disease Rating Scale (MDS-UPDRS) (copyright 2008 Movement Disorder Society. All Rights Reserved).</nciodm:CDISCDefinition>
          <nciodm:PreferredTerm>Movement Disorder Society Unified Parkinson's Disease Rating Scale Questionnaire</nciodm:PreferredTerm>
        </EnumeratedItem>
        <EnumeratedItem CodedValue="NPI" nciodm:ExtCodeID="C100772">
          <nciodm:CDISCSynonym>NPI1</nciodm:CDISCSynonym>
          <nciodm:CDISCDefinition>Neuropsychiatric Inventory (NPI) (copyright JL Cummings, 1994, all rights reserved; permission for commercial use required; npiTEST.net).</nciodm:CDISCDefinition>
          <nciodm:PreferredTerm>Neuropsychiatric Inventory Questionnaire</nciodm:PreferredTerm>
        </EnumeratedItem>
        <EnumeratedItem CodedValue="PDQUALIF" nciodm:ExtCodeID="C100773">
          <nciodm:CDISCSynonym>PDQ01</nciodm:CDISCSynonym>
          <nciodm:CDISCDefinition>Parkinson's Disease Quality of Life Scale (PDQUALIF) (Welsh M, McDermott MP, Holloway RG, Plumb S, Pfeiffer R, Hubble J, and The Parkinson Study Group. Development and Testing of the Parkinson's Disease Quality of Life Scale. Movement Disorders, 2003, Vol. 18; 637-645).</nciodm:CDISCDefinition>
          <nciodm:PreferredTerm>Parkinson's Disease Quality of Life Scale Questionnaire</nciodm:PreferredTerm>
        </EnumeratedItem>
        <EnumeratedItem CodedValue="RDQ" nciodm:ExtCodeID="C100774">
          <nciodm:CDISCSynonym>RDQ01</nciodm:CDISCSynonym>
          <nciodm:CDISCDefinition>Roland Morris Disability Questionnaire (RDQ) (Roland MO, Morris RW. A study of the natural history of back pain. Part 1: Development of a reliable and sensitive measure of disability in low back pain. Spine 1983;8:141-144).</nciodm:CDISCDefinition>
          <nciodm:PreferredTerm>Roland Morris Disability Questionnaire</nciodm:PreferredTerm>
        </EnumeratedItem>
        <EnumeratedItem CodedValue="SOAPP-R" nciodm:ExtCodeID="C100777">
          <nciodm:CDISCSynonym>SOAPR1</nciodm:CDISCSynonym>
          <nciodm:CDISCDefinition>Screener and Opioid Assessment for Patients with Pain Revised (SOAPP-R) (copyright 2007 Inflexxion, Inc., All rights reserved).</nciodm:CDISCDefinition>
          <nciodm:PreferredTerm>Screener and Opioid Assessment for Patients with Pain Revised Questionnaire</nciodm:PreferredTerm>
        </EnumeratedItem>
        <EnumeratedItem CodedValue="SF36 v1.0 STANDARD" nciodm:ExtCodeID="C100775">
          <nciodm:CDISCSynonym>SF361</nciodm:CDISCSynonym>
          <nciodm:CDISCDefinition>The Short Form 36 Health Survey Standard, US Version 1.0 (SF36 v1.0 Standard) (copyright 1988, 2002 by Medical Outcomes Trust and Quality Metric Incorporated. All rights reserved).</nciodm:CDISCDefinition>
          <nciodm:PreferredTerm>Short Form 36 Health Survey Standard, US Version 1.0 Questionnaire</nciodm:PreferredTerm>
        </EnumeratedItem>
        <EnumeratedItem CodedValue="SHORT-FORM MPQ-2" nciodm:ExtCodeID="C100776">
          <nciodm:CDISCSynonym>SFMP2</nciodm:CDISCSynonym>
          <nciodm:CDISCDefinition>Short-Form McGill Pain Questionnaire-2 (SF-MPQ-2) (Copyright R. Melzack and the Initiative on Methods, Measurement, and Pain Assessment in Clinical Trials (IMMPACT), 2009, All Rights Reserved).</nciodm:CDISCDefinition>
          <nciodm:PreferredTerm>Short-Form McGill Pain Questionnaire-2</nciodm:PreferredTerm>
        </EnumeratedItem>
        <EnumeratedItem CodedValue="WPAI-SHP" nciodm:ExtCodeID="C100779">
          <nciodm:CDISCSynonym>WPAI01</nciodm:CDISCSynonym>
          <nciodm:CDISCDefinition>The Work Productivity and Activity Impairment - Specific Health Problems Questionnaire Version 2.0 (WPAI01) (http://www.reillyassociates.net/WPAI_SHP.html).</nciodm:CDISCDefinition>
          <nciodm:PreferredTerm>Work Productivity and Activity Impairment Specific Health Problems Version 2.0 Questionnaire</nciodm:PreferredTerm>
        </EnumeratedItem>
        <EnumeratedItem CodedValue="AIMS" nciodm:ExtCodeID="C102111">
          <nciodm:CDISCSynonym>AIMS01</nciodm:CDISCSynonym>
          <nciodm:CDISCDefinition>Abnormal Involuntary Movement Scale (AIMS) (Guy W. Ed. ECDEU Assessment Manual for Psychopharmacology. Rockville MD: US Dept of Health, Education and Welfare. 1976, Publication No. (ADM) 76-338).</nciodm:CDISCDefinition>
          <nciodm:PreferredTerm>Abnormal Involuntary Movement Scale Questionnaire</nciodm:PreferredTerm>
        </EnumeratedItem>
        <EnumeratedItem CodedValue="AVLT" nciodm:ExtCodeID="C102112">
          <nciodm:CDISCSynonym>AVL01</nciodm:CDISCSynonym>
          <nciodm:CDISCDefinition>The Alzheimer's Disease Neuroimaging Initiative's (ADNI) version of the Auditory Verbal Learning Test (AVLT Version A) modified from Rey A. L'examen clinique en psychologie [Clinical tests in psychology]. Paris: Presses Universitaires de France; 1964.</nciodm:CDISCDefinition>
          <nciodm:PreferredTerm>Alzheimer's Disease Neuroimaging Initiative Auditory Verbal Learning Test Questionnaire</nciodm:PreferredTerm>
        </EnumeratedItem>
        <EnumeratedItem CodedValue="BARS" nciodm:ExtCodeID="C102113">
          <nciodm:CDISCSynonym>BARS01</nciodm:CDISCSynonym>
          <nciodm:CDISCDefinition>Barnes Akathisia Rating Scale (BARS) (Barnes TR: A Rating Scale for Drug-Induced Akathisia. British Journal of Psychiatry 154:672-676, 1989).</nciodm:CDISCDefinition>
          <nciodm:PreferredTerm>Barnes Akathisia Rating Scale Questionnaire</nciodm:PreferredTerm>
        </EnumeratedItem>
        <EnumeratedItem CodedValue="CDR" nciodm:ExtCodeID="C102114">
          <nciodm:CDISCSynonym>CDR01</nciodm:CDISCSynonym>
          <nciodm:CDISCDefinition>Clinical Dementia Rating (CDR) (Morris, JC. Clinical Dementia Rating: A reliable and valid diagnostic and staging measure for dementia of the Alzheimer type. International Psychogeriatrics 1997: 9, Suppl. 1, 173-176).</nciodm:CDISCDefinition>
          <nciodm:PreferredTerm>Clinical Dementia Rating Questionnaire</nciodm:PreferredTerm>
        </EnumeratedItem>
        <EnumeratedItem CodedValue="COWS" nciodm:ExtCodeID="C102115">
          <nciodm:CDISCSynonym>COWS1</nciodm:CDISCSynonym>
          <nciodm:CDISCDefinition>The Clinical Opiate Withdrawal Scale (COWS) (Wesson DR and Ling W. The Clinical Opiate Withdrawal Scale (COWS). J Psychoactive Drugs 2003;35(2):253-259).</nciodm:CDISCDefinition>
          <nciodm:PreferredTerm>Clinical Opiate Withdrawal Scale Questionnaire</nciodm:PreferredTerm>
        </EnumeratedItem>
        <EnumeratedItem CodedValue="ECOG" nciodm:ExtCodeID="C102116">
          <nciodm:CDISCSynonym>ECOG1</nciodm:CDISCSynonym>
          <nciodm:CDISCDefinition>Eastern Cooperative Oncology Group (ECOG) Performance Status (Oken MM, Creech RH, Tormey DC, Horton J, Davis TE, McFadden ET, Carbone PP. Toxicity and response criteria of the Eastern Cooperative Oncology Group. Am J Clin Oncol. 1982 Dec;5(6):649-55).</nciodm:CDISCDefinition>
          <nciodm:PreferredTerm>Eastern Cooperative Oncology Group Performance Status Questionnaire</nciodm:PreferredTerm>
        </EnumeratedItem>
        <EnumeratedItem CodedValue="EQ-5D-5L" nciodm:ExtCodeID="C102117">
          <nciodm:CDISCSynonym>EQ5D02</nciodm:CDISCSynonym>
          <nciodm:CDISCDefinition>The EuroQol (European Quality of Life) Five Dimension Five Level Scale (EQ-5D-5L) (copyright 2009 EuroQol Group EQ-5D. All Rights Reserved).</nciodm:CDISCDefinition>
          <nciodm:PreferredTerm>European Quality of Life Five Dimension Five Level Scale Questionnaire</nciodm:PreferredTerm>
        </EnumeratedItem>
        <EnumeratedItem CodedValue="HAMA" nciodm:ExtCodeID="C102118">
          <nciodm:CDISCSynonym>HAMA1</nciodm:CDISCSynonym>
          <nciodm:CDISCDefinition>The Hamilton Anxiety Rating Scale (HAM-A) (Hamilton M. The assessment of anxiety states by rating. Br J Med Psychol 1959; 32:50-55).</nciodm:CDISCDefinition>
          <nciodm:PreferredTerm>Hamilton Anxiety Rating Scale Questionnaire</nciodm:PreferredTerm>
        </EnumeratedItem>
        <EnumeratedItem CodedValue="HAMD 21" nciodm:ExtCodeID="C102119">
          <nciodm:CDISCSynonym>HAMD2</nciodm:CDISCSynonym>
          <nciodm:CDISCDefinition>The Hamilton Depression Rating Scale 21-Item (HAMD 21) (Hedlund and Vieweg, The Hamilton rating scale for depression. Journal of Operational Psychiatry, 1979;10(2):149-165).</nciodm:CDISCDefinition>
          <nciodm:PreferredTerm>Hamilton Depression Rating Scale 21-Item Questionnaire</nciodm:PreferredTerm>
        </EnumeratedItem>
        <EnumeratedItem CodedValue="SF36 v1.0 ACUTE" nciodm:ExtCodeID="C102120">
          <nciodm:CDISCSynonym>SF362</nciodm:CDISCSynonym>
          <nciodm:CDISCDefinition>The Short Form 36 Health Survey Acute, US Version 1.0 (SF36 v1.0 Acute) (copyright 1988, 2002 by Medical Outcomes Trust and Quality Metric Incorporated. All rights reserved).</nciodm:CDISCDefinition>
          <nciodm:PreferredTerm>Short Form 36 Health Survey Acute, US Version 1.0 Questionnaire</nciodm:PreferredTerm>
        </EnumeratedItem>
        <EnumeratedItem CodedValue="SF36 v2.0 ACUTE" nciodm:ExtCodeID="C102121">
          <nciodm:CDISCSynonym>SF364</nciodm:CDISCSynonym>
          <nciodm:CDISCDefinition>The Short Form 36 Health Survey Acute, US Version 2.0 (SF36 v2.0 Acute) (copyright 1996, 2000 by Quality Metric Incorporated and Medical Outcomes Trust. All rights reserved).</nciodm:CDISCDefinition>
          <nciodm:PreferredTerm>Short Form 36 Health Survey Acute, US Version 2.0 Questionnaire</nciodm:PreferredTerm>
        </EnumeratedItem>
        <EnumeratedItem CodedValue="SF36 v2.0 STANDARD" nciodm:ExtCodeID="C102122">
          <nciodm:CDISCSynonym>SF363</nciodm:CDISCSynonym>
          <nciodm:CDISCDefinition>The Short Form 36 Health Survey Standard, US Version 2.0 (SF36 v2.0 Standard) (copyright 1996, 2000 by Quality Metric Incorporated and Medical Outcomes Trust. All rights reserved).</nciodm:CDISCDefinition>
          <nciodm:PreferredTerm>Short Form 36 Health Survey Standard, US Version 2.0 Questionnaire</nciodm:PreferredTerm>
        </EnumeratedItem>
        <EnumeratedItem CodedValue="SOWS SUBJECTIVE" nciodm:ExtCodeID="C102123">
          <nciodm:CDISCSynonym>SOWSA1</nciodm:CDISCSynonym>
          <nciodm:CDISCDefinition>The Subjective Opiate Withdrawal Scale (SOWS) (Handelsman, L., Cochrane, K. J., Aronson, M. J. Ness, R., Rubinstein K.J., Kanof, P.D. (1987) Two New Rating Scales for Opiate Withdrawal. American Journal of Alcohol Abuse, 13, 293-308).</nciodm:CDISCDefinition>
          <nciodm:PreferredTerm>Subjective Opiate Withdrawal Scale Questionnaire</nciodm:PreferredTerm>
        </EnumeratedItem>
        <EnumeratedItem CodedValue="UPDRS" nciodm:ExtCodeID="C100778">
          <nciodm:CDISCSynonym>UPD1</nciodm:CDISCSynonym>
          <nciodm:CDISCDefinition>Unified Parkinson's Disease Rating Scale (UPDRS) (Fahn S, Marsden CD, Calne DB, Goldstein M, eds. Recent Developments in Parkinson's Disease, Vol 2. Florham Park, NJ. Macmillan Health Care Information 1987, pp 153-163, 293-304).</nciodm:CDISCDefinition>
          <nciodm:PreferredTerm>Unified Parkinson's Disease Rating Scale Questionnaire</nciodm:PreferredTerm>
        </EnumeratedItem>
        <EnumeratedItem CodedValue="YMRS" nciodm:ExtCodeID="C102124">
          <nciodm:CDISCSynonym>YMRS01</nciodm:CDISCSynonym>
          <nciodm:CDISCDefinition>Young Mania Rating Scale (YMRS) (Young RC, Biggs JT, Ziegler VE et al: A rating scale for mania: reliability, validity and sensitivity. Br J Psychiatry 133: 429-435, 1978).</nciodm:CDISCDefinition>
          <nciodm:PreferredTerm>Young Mania Rating Scale Questionnaire</nciodm:PreferredTerm>
        </EnumeratedItem>
        <EnumeratedItem CodedValue="ADCS-CGIC" nciodm:ExtCodeID="C103515">
          <nciodm:CDISCSynonym>ACGC01</nciodm:CDISCSynonym>
          <nciodm:CDISCDefinition>Alzheimer's Disease Cooperative Study-Clinical Global Impression of Change (ADCS-CGIC) (Schneider LS, Olin JT, Doody RS, Clark CM, Morris JC, Reisberg B, Schmitt FA, Grundman M, Thomas RG, Ferris SH, and the Alzheimer's Disease Cooperative Study. Validity and Reliability of the Alzheimer's Disease Cooperative Study-Clinical Global Impression of Change. Alzheimer Disease and Associated Disorders. 1997; 11(2):S22-S32).</nciodm:CDISCDefinition>
          <nciodm:PreferredTerm>Alzheimer's Disease Cooperative Study-Clinical Global Impression of Change Questionnaire</nciodm:PreferredTerm>
        </EnumeratedItem>
        <EnumeratedItem CodedValue="C-SSRS SINCE LAST VISIT" nciodm:ExtCodeID="C103516">
          <nciodm:CDISCSynonym>CSS02</nciodm:CDISCSynonym>
          <nciodm:CDISCDefinition>Columbia-Suicidality Severity Rating Scale (C-SSRS) Since Last Visit Version 1/14/2009 (Posner, K.; Brent, D.; Lucas, C.; Gould, M.; Stanley, B.; Brown, G.; Fisher, P.; Zelazny, J.; Burke, A.; Oquendo, M.; Mann, J.; copyright 2008 The Research Foundation for Mental Hygiene, Inc.).</nciodm:CDISCDefinition>
          <nciodm:PreferredTerm>Columbia-Suicidality Severity Rating Scale Since Last Visit Questionnaire</nciodm:PreferredTerm>
        </EnumeratedItem>
        <EnumeratedItem CodedValue="ESS" nciodm:ExtCodeID="C103517">
          <nciodm:CDISCSynonym>ESS01</nciodm:CDISCSynonym>
          <nciodm:CDISCDefinition>Epworth Sleepiness Scale (ESS) (copyright Murray W. Johns, 1990-1997. All rights reserved.).</nciodm:CDISCDefinition>
          <nciodm:PreferredTerm>Epworth Sleepiness Scale Questionnaire</nciodm:PreferredTerm>
        </EnumeratedItem>
        <EnumeratedItem CodedValue="FIQR" nciodm:ExtCodeID="C103518">
          <nciodm:CDISCSynonym>FIQR01</nciodm:CDISCSynonym>
          <nciodm:CDISCDefinition>Revised Fibromyalgia Impact Questionnaire (FIQR) (copyright 2009 Bennett RM and Friend. All Rights Reserved.).</nciodm:CDISCDefinition>
          <nciodm:PreferredTerm>Revised Fibromyalgia Impact Questionnaire</nciodm:PreferredTerm>
        </EnumeratedItem>
        <EnumeratedItem CodedValue="GAD-7" nciodm:ExtCodeID="C103519">
          <nciodm:CDISCSynonym>GAD01</nciodm:CDISCSynonym>
          <nciodm:CDISCDefinition>Generalized Anxiety Disorder - 7 (GAD-7) (Spitzer RL, Kroenke K, Williams JBW, Lowe B. A brief measure for assessing generalized anxiety disorder: The GAD-7. Arch Intern Med 2006; 166:1092-1097).</nciodm:CDISCDefinition>
          <nciodm:PreferredTerm>Generalized Anxiety Disorder - 7 Questionnaire</nciodm:PreferredTerm>
        </EnumeratedItem>
        <EnumeratedItem CodedValue="HADS" nciodm:ExtCodeID="C103520">
          <nciodm:CDISCSynonym>HADS01</nciodm:CDISCSynonym>
          <nciodm:CDISCDefinition>Hospital Anxiety and Depression Scale (HADS) (copyright 1983, 1992, 1994 by R.P. Snaith and A.S. Zigmond. All rights reserved.).</nciodm:CDISCDefinition>
          <nciodm:PreferredTerm>Hospital Anxiety and Depression Scale Questionnaire</nciodm:PreferredTerm>
        </EnumeratedItem>
        <EnumeratedItem CodedValue="IIEF" nciodm:ExtCodeID="C103521">
          <nciodm:CDISCSynonym>IIEF01</nciodm:CDISCSynonym>
          <nciodm:CDISCDefinition>International Index of Erectile Function (IIEF) (Rosen RC, Riley A, Wagner G, Osterloh IH, Kirkpatrick J, and Mishra A. The international index of erectile function (IIEF): a multidimensional scale for assessment of erectile dysfunction. Urology. 1997 49(6): 822-830).</nciodm:CDISCDefinition>
          <nciodm:PreferredTerm>International Index of Erectile Function Questionnaire</nciodm:PreferredTerm>
        </EnumeratedItem>
        <EnumeratedItem CodedValue="NPS" nciodm:ExtCodeID="C103522">
          <nciodm:CDISCSynonym>NPS01</nciodm:CDISCSynonym>
          <nciodm:CDISCDefinition>Neuropathic Pain Scale (NPS) (copyright Brad Galer and Mark Jensen. All rights reserved.).</nciodm:CDISCDefinition>
          <nciodm:PreferredTerm>Neuropathic Pain Scale Questionnaire</nciodm:PreferredTerm>
        </EnumeratedItem>
        <EnumeratedItem CodedValue="OAB-Q" nciodm:ExtCodeID="C103523">
          <nciodm:CDISCSynonym>OABQ01</nciodm:CDISCSynonym>
          <nciodm:CDISCDefinition>The Overactive Bladder Questionnaire (OAB-q) (Coyne K, Revicki D, Hunt T, et al. Psychometric validation of an overactive bladder symptom and health-related quality of life questionnaire: the OAB-q. Qual Life Res. Sep 2002; 11(6):563-574).</nciodm:CDISCDefinition>
          <nciodm:PreferredTerm>The Overactive Bladder Questionnaire</nciodm:PreferredTerm>
        </EnumeratedItem>
        <EnumeratedItem CodedValue="OAB-Q SHORT FORM" nciodm:ExtCodeID="C103524">
          <nciodm:CDISCSynonym>OABQ02</nciodm:CDISCSynonym>
          <nciodm:CDISCDefinition>The Overactive Bladder Questionnaire Short Form (OAB-q Short Form) (Coyne KS, Lai JS, Zyczynski T, Kopp Z, Avery K, Abrams P. An overactive bladder symptom and quality-of-life short form: development of the Overactive Bladder Questionnaire (OAB-q) short form (SF). Presented at the Joint Meeting of the International Continence Society and the International Urogynecological Association; August 23-27, 2004; Paris, France).</nciodm:CDISCDefinition>
          <nciodm:PreferredTerm>The Overactive Bladder Questionnaire Short Form</nciodm:PreferredTerm>
        </EnumeratedItem>
        <EnumeratedItem CodedValue="ODI v2.1A" nciodm:ExtCodeID="C103525">
          <nciodm:CDISCSynonym>ODI01</nciodm:CDISCSynonym>
          <nciodm:CDISCDefinition>The Oswestry Disability Index Version 2.1a (ODI v2.1A) (copyright 1980 Jeremy Fairbank. All Rights Reserved.).</nciodm:CDISCDefinition>
          <nciodm:PreferredTerm>The Oswestry Disability Index Version 2.1a Questionnaire</nciodm:PreferredTerm>
        </EnumeratedItem>
        <EnumeratedItem CodedValue="PHQ-15" nciodm:ExtCodeID="C103527">
          <nciodm:CDISCSynonym>PHQ02</nciodm:CDISCSynonym>
          <nciodm:CDISCDefinition>Patient Health Questionnaire - 15 (PHQ-15) (Kroenke K, Spitzer RL, Williams JBW. The PHQ-15: Validity of a new measure for evaluating the severity of somatic symptoms. Psychosom Med 2002; 64:258-266).</nciodm:CDISCDefinition>
          <nciodm:PreferredTerm>Patient Health Questionnaire - 15 Item</nciodm:PreferredTerm>
        </EnumeratedItem>
        <EnumeratedItem CodedValue="PHQ-9" nciodm:ExtCodeID="C103526">
          <nciodm:CDISCSynonym>PHQ01</nciodm:CDISCSynonym>
          <nciodm:CDISCDefinition>Patient Health Questionnaire - 9 (PHQ-9) (Kroenke K, Spitzer RL, Williams JBW. The PHQ-9: Validity of a brief depression severity measure. J Gen Intern Med 2001; 16:606-613).</nciodm:CDISCDefinition>
          <nciodm:PreferredTerm>Patient Health Questionnaire - 9 Item</nciodm:PreferredTerm>
        </EnumeratedItem>
        <EnumeratedItem CodedValue="SIQR" nciodm:ExtCodeID="C103528">
          <nciodm:CDISCSynonym>SIQR01</nciodm:CDISCSynonym>
          <nciodm:CDISCDefinition>Symptom Impact Questionnaire (SIQR) (copyright 2009 Bennett RM and Friend. All Rights Reserved.).</nciodm:CDISCDefinition>
          <nciodm:PreferredTerm>Symptom Impact Questionnaire</nciodm:PreferredTerm>
        </EnumeratedItem>
        <EnumeratedItem CodedValue="SOWS SHORT" nciodm:ExtCodeID="C103529">
          <nciodm:CDISCSynonym>SOWSB1</nciodm:CDISCSynonym>
          <nciodm:CDISCDefinition>Short Opiate Withdrawal Scale (SOWS SHORT) (Gossop, M. The development of a short opiate withdrawal scale. Addictive Behaviors 1990; 15:487-490).</nciodm:CDISCDefinition>
          <nciodm:PreferredTerm>Short Opiate Withdrawal Scale Questionnaire</nciodm:PreferredTerm>
        </EnumeratedItem>
        <EnumeratedItem CodedValue="UPS" nciodm:ExtCodeID="C103530">
          <nciodm:CDISCSynonym>UPS01</nciodm:CDISCSynonym>
          <nciodm:CDISCDefinition>Urgency Perception Scale (UPS) (copyright Pfizer. All rights reserved.).</nciodm:CDISCDefinition>
          <nciodm:PreferredTerm>Urgency Perception Scale Questionnaire</nciodm:PreferredTerm>
        </EnumeratedItem>
        <nciodm:CDISCSubmissionValue>QSCAT</nciodm:CDISCSubmissionValue>
        <nciodm:CDISCSynonym>Questionnaire Category</nciodm:CDISCSynonym>
        <nciodm:PreferredTerm>CDISC Questionnaire Category Terminology</nciodm:PreferredTerm>
      </CodeList>
      <CodeList OID="CL.C100132.ADAS-Cog CDISC Version TESTCD" Name="Alzheimer's Disease Assessment Scale - Cognitive CDISC Version Test Code" DataType="text" nciodm:ExtCodeID="C100132" nciodm:CodeListExtensible="No">
        <Description>
          <TranslatedText xml:lang="en">ADAS-Cog CDISC Version test code.</TranslatedText>
        </Description>
        <EnumeratedItem CodedValue="ADCRL" nciodm:ExtCodeID="C100177">
          <nciodm:CDISCSynonym>Word Recall</nciodm:CDISCSynonym>
          <nciodm:CDISCDefinition>Alzheimer's Disease Assessment Scale-Cognitive CDISC Version - Word recall task word average score of trials 1, 2, 3.</nciodm:CDISCDefinition>
          <nciodm:PreferredTerm>CDISC ADAS-Cog - Word Recall Average Score</nciodm:PreferredTerm>
        </EnumeratedItem>
        <EnumeratedItem CodedValue="ADCRLT01" nciodm:ExtCodeID="C100178">
          <nciodm:CDISCSynonym>Word Recall Trial 1</nciodm:CDISCSynonym>
          <nciodm:CDISCDefinition>Alzheimer's Disease Assessment Scale-Cognitive CDISC Version - Sub-score for word recall task trial 1.</nciodm:CDISCDefinition>
          <nciodm:PreferredTerm>CDISC ADAS-Cog - Word Recall Trial 1 Subscore</nciodm:PreferredTerm>
        </EnumeratedItem>
        <EnumeratedItem CodedValue="ADCRLT02" nciodm:ExtCodeID="C100179">
          <nciodm:CDISCSynonym>Word Recall Trial 2</nciodm:CDISCSynonym>
          <nciodm:CDISCDefinition>Alzheimer's Disease Assessment Scale-Cognitive CDISC Version - Sub-score for word recall task trial 2.</nciodm:CDISCDefinition>
          <nciodm:PreferredTerm>CDISC ADAS-Cog - Word Recall Trial 2 Subscore</nciodm:PreferredTerm>
        </EnumeratedItem>
        <EnumeratedItem CodedValue="ADCRLT03" nciodm:ExtCodeID="C100180">
          <nciodm:CDISCSynonym>Word Recall Trial 3</nciodm:CDISCSynonym>
          <nciodm:CDISCDefinition>Alzheimer's Disease Assessment Scale-Cognitive CDISC Version - Sub-score for word recall task trial 3.</nciodm:CDISCDefinition>
          <nciodm:PreferredTerm>CDISC ADAS-Cog - Word Recall Trial 3 Subscore</nciodm:PreferredTerm>
        </EnumeratedItem>
        <EnumeratedItem CodedValue="ADCRLW01" nciodm:ExtCodeID="C100181">
          <nciodm:CDISCSynonym>Word Recall: Word [1]</nciodm:CDISCSynonym>
          <nciodm:CDISCDefinition>Alzheimer's Disease Assessment Scale-Cognitive CDISC Version - Word recall task word 1 for trial 1, 2, 3.</nciodm:CDISCDefinition>
          <nciodm:PreferredTerm>CDISC ADAS-Cog - Word Recall: Word 1</nciodm:PreferredTerm>
        </EnumeratedItem>
        <EnumeratedItem CodedValue="ADCRLW02" nciodm:ExtCodeID="C100182">
          <nciodm:CDISCSynonym>Word Recall: Word [2]</nciodm:CDISCSynonym>
          <nciodm:CDISCDefinition>Alzheimer's Disease Assessment Scale-Cognitive CDISC Version - Word recall task word 2 for trial 1, 2, 3.</nciodm:CDISCDefinition>
          <nciodm:PreferredTerm>CDISC ADAS-Cog - Word Recall: Word 2</nciodm:PreferredTerm>
        </EnumeratedItem>
        <EnumeratedItem CodedValue="ADCRLW03" nciodm:ExtCodeID="C100183">
          <nciodm:CDISCSynonym>Word Recall: Word [3]</nciodm:CDISCSynonym>
          <nciodm:CDISCDefinition>Alzheimer's Disease Assessment Scale-Cognitive CDISC Version - Word recall task word 3 for trial 1, 2, 3.</nciodm:CDISCDefinition>
          <nciodm:PreferredTerm>CDISC ADAS-Cog - Word Recall: Word 3</nciodm:PreferredTerm>
        </EnumeratedItem>
        <EnumeratedItem CodedValue="ADCRLW04" nciodm:ExtCodeID="C100184">
          <nciodm:CDISCSynonym>Word Recall: Word [4]</nciodm:CDISCSynonym>
          <nciodm:CDISCDefinition>Alzheimer's Disease Assessment Scale-Cognitive CDISC Version - Word recall task word 4 for trial 1, 2, 3.</nciodm:CDISCDefinition>
          <nciodm:PreferredTerm>CDISC ADAS-Cog - Word Recall: Word 4</nciodm:PreferredTerm>
        </EnumeratedItem>
        <EnumeratedItem CodedValue="ADCRLW05" nciodm:ExtCodeID="C100185">
          <nciodm:CDISCSynonym>Word Recall: Word [5]</nciodm:CDISCSynonym>
          <nciodm:CDISCDefinition>Alzheimer's Disease Assessment Scale-Cognitive CDISC Version - Word recall task word 5 for trial 1, 2, 3.</nciodm:CDISCDefinition>
          <nciodm:PreferredTerm>CDISC ADAS-Cog - Word Recall: Word 5</nciodm:PreferredTerm>
        </EnumeratedItem>
        <EnumeratedItem CodedValue="ADCRLW06" nciodm:ExtCodeID="C100186">
          <nciodm:CDISCSynonym>Word Recall: Word [6]</nciodm:CDISCSynonym>
          <nciodm:CDISCDefinition>Alzheimer's Disease Assessment Scale-Cognitive CDISC Version - Word recall task word 6 for trial 1, 2, 3.</nciodm:CDISCDefinition>
          <nciodm:PreferredTerm>CDISC ADAS-Cog - Word Recall: Word 6</nciodm:PreferredTerm>
        </EnumeratedItem>
        <EnumeratedItem CodedValue="ADCRLW07" nciodm:ExtCodeID="C100187">
          <nciodm:CDISCSynonym>Word Recall: Word [7]</nciodm:CDISCSynonym>
          <nciodm:CDISCDefinition>Alzheimer's Disease Assessment Scale-Cognitive CDISC Version - Word recall task word 7 for trial 1, 2, 3.</nciodm:CDISCDefinition>
          <nciodm:PreferredTerm>CDISC ADAS-Cog - Word Recall: Word 7</nciodm:PreferredTerm>
        </EnumeratedItem>
        <EnumeratedItem CodedValue="ADCRLW08" nciodm:ExtCodeID="C100188">
          <nciodm:CDISCSynonym>Word Recall: Word [8]</nciodm:CDISCSynonym>
          <nciodm:CDISCDefinition>Alzheimer's Disease Assessment Scale-Cognitive CDISC Version - Word recall task word 8 for trial 1, 2, 3.</nciodm:CDISCDefinition>
          <nciodm:PreferredTerm>CDISC ADAS-Cog - Word Recall: Word 8</nciodm:PreferredTerm>
        </EnumeratedItem>
        <EnumeratedItem CodedValue="ADCRLW09" nciodm:ExtCodeID="C100189">
          <nciodm:CDISCSynonym>Word Recall: Word [9]</nciodm:CDISCSynonym>
          <nciodm:CDISCDefinition>Alzheimer's Disease Assessment Scale-Cognitive CDISC Version - Word recall task word 9 for trial 1, 2, 3.</nciodm:CDISCDefinition>
          <nciodm:PreferredTerm>CDISC ADAS-Cog - Word Recall: Word 9</nciodm:PreferredTerm>
        </EnumeratedItem>
        <EnumeratedItem CodedValue="ADCRLW10" nciodm:ExtCodeID="C100190">
          <nciodm:CDISCSynonym>Word Recall: Word [10]</nciodm:CDISCSynonym>
          <nciodm:CDISCDefinition>Alzheimer's Disease Assessment Scale-Cognitive CDISC Version - Word recall task word 10 for trial 1, 2, 3.</nciodm:CDISCDefinition>
          <nciodm:PreferredTerm>CDISC ADAS-Cog - Word Recall: Word 10</nciodm:PreferredTerm>
        </EnumeratedItem>
        <EnumeratedItem CodedValue="ADCOF" nciodm:ExtCodeID="C100191">
          <nciodm:CDISCSynonym>Naming Objects and Fingers</nciodm:CDISCSynonym>
          <nciodm:CDISCDefinition>Alzheimer's Disease Assessment Scale-Cognitive CDISC Version - Naming task summary score for object and fingers.</nciodm:CDISCDefinition>
          <nciodm:PreferredTerm>CDISC ADAS-Cog - Naming Objects and Fingers Summary Score</nciodm:PreferredTerm>
        </EnumeratedItem>
        <EnumeratedItem CodedValue="ADCOFO01" nciodm:ExtCodeID="C100192">
          <nciodm:CDISCSynonym>Naming Objects and Fingers: 1</nciodm:CDISCSynonym>
          <nciodm:CDISCDefinition>Alzheimer's Disease Assessment Scale-Cognitive CDISC Version - Naming task for object 1.</nciodm:CDISCDefinition>
          <nciodm:PreferredTerm>CDISC ADAS-Cog - Naming Objects and Fingers: 1</nciodm:PreferredTerm>
        </EnumeratedItem>
        <EnumeratedItem CodedValue="ADCOFO02" nciodm:ExtCodeID="C100193">
          <nciodm:CDISCSynonym>Naming Objects and Fingers: 2</nciodm:CDISCSynonym>
          <nciodm:CDISCDefinition>Alzheimer's Disease Assessment Scale-Cognitive CDISC Version - Naming task for object 2.</nciodm:CDISCDefinition>
          <nciodm:PreferredTerm>CDISC ADAS-Cog - Naming Objects and Fingers: 2</nciodm:PreferredTerm>
        </EnumeratedItem>
        <EnumeratedItem CodedValue="ADCOFO03" nciodm:ExtCodeID="C100194">
          <nciodm:CDISCSynonym>Naming Objects and Fingers: 3</nciodm:CDISCSynonym>
          <nciodm:CDISCDefinition>Alzheimer's Disease Assessment Scale-Cognitive CDISC Version - Naming task for object 3.</nciodm:CDISCDefinition>
          <nciodm:PreferredTerm>CDISC ADAS-Cog - Naming Objects and Fingers: 3</nciodm:PreferredTerm>
        </EnumeratedItem>
        <EnumeratedItem CodedValue="ADCOFO04" nciodm:ExtCodeID="C100195">
          <nciodm:CDISCSynonym>Naming Objects and Fingers: 4</nciodm:CDISCSynonym>
          <nciodm:CDISCDefinition>Alzheimer's Disease Assessment Scale-Cognitive CDISC Version - Naming task for object 4.</nciodm:CDISCDefinition>
          <nciodm:PreferredTerm>CDISC ADAS-Cog - Naming Objects and Fingers: 4</nciodm:PreferredTerm>
        </EnumeratedItem>
        <EnumeratedItem CodedValue="ADCOFO05" nciodm:ExtCodeID="C100196">
          <nciodm:CDISCSynonym>Naming Objects and Fingers: 5</nciodm:CDISCSynonym>
          <nciodm:CDISCDefinition>Alzheimer's Disease Assessment Scale-Cognitive CDISC Version - Naming task for object 5.</nciodm:CDISCDefinition>
          <nciodm:PreferredTerm>CDISC ADAS-Cog - Naming Objects and Fingers: 5</nciodm:PreferredTerm>
        </EnumeratedItem>
        <EnumeratedItem CodedValue="ADCOFO06" nciodm:ExtCodeID="C100197">
          <nciodm:CDISCSynonym>Naming Objects and Fingers: 6</nciodm:CDISCSynonym>
          <nciodm:CDISCDefinition>Alzheimer's Disease Assessment Scale-Cognitive CDISC Version - Naming task for object 6.</nciodm:CDISCDefinition>
          <nciodm:PreferredTerm>CDISC ADAS-Cog - Naming Objects and Fingers: 6</nciodm:PreferredTerm>
        </EnumeratedItem>
        <EnumeratedItem CodedValue="ADCOFO07" nciodm:ExtCodeID="C100198">
          <nciodm:CDISCSynonym>Naming Objects and Fingers: 7</nciodm:CDISCSynonym>
          <nciodm:CDISCDefinition>Alzheimer's Disease Assessment Scale-Cognitive CDISC Version - Naming task for object 7.</nciodm:CDISCDefinition>
          <nciodm:PreferredTerm>CDISC ADAS-Cog - Naming Objects and Fingers: 7</nciodm:PreferredTerm>
        </EnumeratedItem>
        <EnumeratedItem CodedValue="ADCOFO08" nciodm:ExtCodeID="C100199">
          <nciodm:CDISCSynonym>Naming Objects and Fingers: 8</nciodm:CDISCSynonym>
          <nciodm:CDISCDefinition>Alzheimer's Disease Assessment Scale-Cognitive CDISC Version - Naming task for object 8.</nciodm:CDISCDefinition>
          <nciodm:PreferredTerm>CDISC ADAS-Cog - Naming Objects and Fingers: 8</nciodm:PreferredTerm>
        </EnumeratedItem>
        <EnumeratedItem CodedValue="ADCOFO09" nciodm:ExtCodeID="C100200">
          <nciodm:CDISCSynonym>Naming Objects and Fingers: 9</nciodm:CDISCSynonym>
          <nciodm:CDISCDefinition>Alzheimer's Disease Assessment Scale-Cognitive CDISC Version - Naming task for object 9.</nciodm:CDISCDefinition>
          <nciodm:PreferredTerm>CDISC ADAS-Cog - Naming Objects and Fingers: 9</nciodm:PreferredTerm>
        </EnumeratedItem>
        <EnumeratedItem CodedValue="ADCOFO10" nciodm:ExtCodeID="C100201">
          <nciodm:CDISCSynonym>Naming Objects and Fingers: 10</nciodm:CDISCSynonym>
          <nciodm:CDISCDefinition>Alzheimer's Disease Assessment Scale-Cognitive CDISC Version - Naming task for object 10.</nciodm:CDISCDefinition>
          <nciodm:PreferredTerm>CDISC ADAS-Cog - Naming Objects and Fingers: 10</nciodm:PreferredTerm>
        </EnumeratedItem>
        <EnumeratedItem CodedValue="ADCOFO11" nciodm:ExtCodeID="C100202">
          <nciodm:CDISCSynonym>Naming Objects and Fingers: 11</nciodm:CDISCSynonym>
          <nciodm:CDISCDefinition>Alzheimer's Disease Assessment Scale-Cognitive CDISC Version - Naming task for object 11.</nciodm:CDISCDefinition>
          <nciodm:PreferredTerm>CDISC ADAS-Cog - Naming Objects and Fingers: 11</nciodm:PreferredTerm>
        </EnumeratedItem>
        <EnumeratedItem CodedValue="ADCOFO12" nciodm:ExtCodeID="C100203">
          <nciodm:CDISCSynonym>Naming Objects and Fingers: 12</nciodm:CDISCSynonym>
          <nciodm:CDISCDefinition>Alzheimer's Disease Assessment Scale-Cognitive CDISC Version - Naming task for object 12.</nciodm:CDISCDefinition>
          <nciodm:PreferredTerm>CDISC ADAS-Cog - Naming Objects and Fingers: 12</nciodm:PreferredTerm>
        </EnumeratedItem>
        <EnumeratedItem CodedValue="ADCOFF01" nciodm:ExtCodeID="C100204">
          <nciodm:CDISCSynonym>Naming Objects and Fingers: Thumb</nciodm:CDISCSynonym>
          <nciodm:CDISCDefinition>Alzheimer's Disease Assessment Scale-Cognitive CDISC Version - Naming task for fingers of the dominant hand, thumb.</nciodm:CDISCDefinition>
          <nciodm:PreferredTerm>CDISC ADAS-Cog - Naming Objects and Fingers: Thumb</nciodm:PreferredTerm>
        </EnumeratedItem>
        <EnumeratedItem CodedValue="ADCOFF02" nciodm:ExtCodeID="C100205">
          <nciodm:CDISCSynonym>Naming Objects and Fingers: Pointer</nciodm:CDISCSynonym>
          <nciodm:CDISCDefinition>Alzheimer's Disease Assessment Scale-Cognitive CDISC Version - Naming task for fingers of the dominant hand, index, or pointer finger.</nciodm:CDISCDefinition>
          <nciodm:PreferredTerm>CDISC ADAS-Cog - Naming Objects and Fingers: Pointer</nciodm:PreferredTerm>
        </EnumeratedItem>
        <EnumeratedItem CodedValue="ADCOFF03" nciodm:ExtCodeID="C100206">
          <nciodm:CDISCSynonym>Naming Objects and Fingers: Middle</nciodm:CDISCSynonym>
          <nciodm:CDISCDefinition>Alzheimer's Disease Assessment Scale-Cognitive CDISC Version - Naming task for fingers of the dominant hand, middle finger.</nciodm:CDISCDefinition>
          <nciodm:PreferredTerm>CDISC ADAS-Cog - Naming Objects and Fingers: Middle</nciodm:PreferredTerm>
        </EnumeratedItem>
        <EnumeratedItem CodedValue="ADCOFF04" nciodm:ExtCodeID="C100207">
          <nciodm:CDISCSynonym>Naming Objects and Fingers: Ring</nciodm:CDISCSynonym>
          <nciodm:CDISCDefinition>Alzheimer's Disease Assessment Scale-Cognitive CDISC Version - Naming task for fingers of the dominant hand, ring finger.</nciodm:CDISCDefinition>
          <nciodm:PreferredTerm>CDISC ADAS-Cog - Naming Objects and Fingers: Ring</nciodm:PreferredTerm>
        </EnumeratedItem>
        <EnumeratedItem CodedValue="ADCOFF05" nciodm:ExtCodeID="C100208">
          <nciodm:CDISCSynonym>Naming Objects and Fingers: Pinky</nciodm:CDISCSynonym>
          <nciodm:CDISCDefinition>Alzheimer's Disease Assessment Scale-Cognitive CDISC Version - Naming task for fingers of the dominant hand, little finger or pinky.</nciodm:CDISCDefinition>
          <nciodm:PreferredTerm>CDISC ADAS-Cog - Naming Objects and Fingers: Pinky</nciodm:PreferredTerm>
        </EnumeratedItem>
        <EnumeratedItem CodedValue="ADCCMD" nciodm:ExtCodeID="C100209">
          <nciodm:CDISCSynonym>Commands</nciodm:CDISCSynonym>
          <nciodm:CDISCDefinition>Alzheimer's Disease Assessment Scale-Cognitive CDISC Version - Summary score for commands.</nciodm:CDISCDefinition>
          <nciodm:PreferredTerm>CDISC ADAS-Cog - Commands Summary Score</nciodm:PreferredTerm>
        </EnumeratedItem>
        <EnumeratedItem CodedValue="ADCCMD01" nciodm:ExtCodeID="C100210">
          <nciodm:CDISCSynonym>Commands: Fist</nciodm:CDISCSynonym>
          <nciodm:CDISCDefinition>Alzheimer's Disease Assessment Scale-Cognitive CDISC Version - Commands task for making a fist.</nciodm:CDISCDefinition>
          <nciodm:PreferredTerm>CDISC ADAS-Cog - Commands: Fist</nciodm:PreferredTerm>
        </EnumeratedItem>
        <EnumeratedItem CodedValue="ADCCMD02" nciodm:ExtCodeID="C100211">
          <nciodm:CDISCSynonym>Commands: Ceiling</nciodm:CDISCSynonym>
          <nciodm:CDISCDefinition>Alzheimer's Disease Assessment Scale-Cognitive CDISC Version - Commands task for pointing to the ceiling then to the floor.</nciodm:CDISCDefinition>
          <nciodm:PreferredTerm>CDISC ADAS-Cog - Commands: Ceiling</nciodm:PreferredTerm>
        </EnumeratedItem>
        <EnumeratedItem CodedValue="ADCCMD03" nciodm:ExtCodeID="C100212">
          <nciodm:CDISCSynonym>Commands: Pencil</nciodm:CDISCSynonym>
          <nciodm:CDISCDefinition>Alzheimer's Disease Assessment Scale-Cognitive CDISC Version - Commands task for put the pencil on top of the card and then put it back.</nciodm:CDISCDefinition>
          <nciodm:PreferredTerm>CDISC ADAS-Cog - Commands: Pencil</nciodm:PreferredTerm>
        </EnumeratedItem>
        <EnumeratedItem CodedValue="ADCCMD04" nciodm:ExtCodeID="C100213">
          <nciodm:CDISCSynonym>Commands: Watch</nciodm:CDISCSynonym>
          <nciodm:CDISCDefinition>Alzheimer's Disease Assessment Scale-Cognitive CDISC Version - Commands task for put the watch on the other side of the pencil and then turn over the card.</nciodm:CDISCDefinition>
          <nciodm:PreferredTerm>CDISC ADAS-Cog - Commands: Watch</nciodm:PreferredTerm>
        </EnumeratedItem>
        <EnumeratedItem CodedValue="ADCCMD05" nciodm:ExtCodeID="C100214">
          <nciodm:CDISCSynonym>Commands: Shoulder</nciodm:CDISCSynonym>
          <nciodm:CDISCDefinition>Alzheimer's Disease Assessment Scale-Cognitive CDISC Version - Commands task for tap each shoulder twice with two fingers keeping your eyes shut.</nciodm:CDISCDefinition>
          <nciodm:PreferredTerm>CDISC ADAS-Cog - Commands: Shoulder</nciodm:PreferredTerm>
        </EnumeratedItem>
        <EnumeratedItem CodedValue="ADCDRL" nciodm:ExtCodeID="C100215">
          <nciodm:CDISCSynonym>Delayed Word Recall</nciodm:CDISCSynonym>
          <nciodm:CDISCDefinition>Alzheimer's Disease Assessment Scale-Cognitive CDISC Version - Summary score for delayed word recall.</nciodm:CDISCDefinition>
          <nciodm:PreferredTerm>CDISC ADAS-Cog - Delayed Word Recall Summary Score</nciodm:PreferredTerm>
        </EnumeratedItem>
        <EnumeratedItem CodedValue="ADCDRL01" nciodm:ExtCodeID="C100216">
          <nciodm:CDISCSynonym>Delayed Word Recall: Word [1]</nciodm:CDISCSynonym>
          <nciodm:CDISCDefinition>Alzheimer's Disease Assessment Scale-Cognitive CDISC Version - Delayed word recall task for word 1.</nciodm:CDISCDefinition>
          <nciodm:PreferredTerm>CDISC ADAS-Cog - Delayed Word Recall: Word 1</nciodm:PreferredTerm>
        </EnumeratedItem>
        <EnumeratedItem CodedValue="ADCDRL02" nciodm:ExtCodeID="C100217">
          <nciodm:CDISCSynonym>Delayed Word Recall: Word [2]</nciodm:CDISCSynonym>
          <nciodm:CDISCDefinition>Alzheimer's Disease Assessment Scale-Cognitive CDISC Version - Delayed word recall task for word 2.</nciodm:CDISCDefinition>
          <nciodm:PreferredTerm>CDISC ADAS-Cog - Delayed Word Recall: Word 2</nciodm:PreferredTerm>
        </EnumeratedItem>
        <EnumeratedItem CodedValue="ADCDRL03" nciodm:ExtCodeID="C100218">
          <nciodm:CDISCSynonym>Delayed Word Recall: Word [3]</nciodm:CDISCSynonym>
          <nciodm:CDISCDefinition>Alzheimer's Disease Assessment Scale-Cognitive CDISC Version - Delayed word recall task for word 3.</nciodm:CDISCDefinition>
          <nciodm:PreferredTerm>CDISC ADAS-Cog - Delayed Word Recall: Word 3</nciodm:PreferredTerm>
        </EnumeratedItem>
        <EnumeratedItem CodedValue="ADCDRL04" nciodm:ExtCodeID="C100219">
          <nciodm:CDISCSynonym>Delayed Word Recall: Word [4]</nciodm:CDISCSynonym>
          <nciodm:CDISCDefinition>Alzheimer's Disease Assessment Scale-Cognitive CDISC Version - Delayed word recall task for word 4.</nciodm:CDISCDefinition>
          <nciodm:PreferredTerm>CDISC ADAS-Cog - Delayed Word Recall: Word 4</nciodm:PreferredTerm>
        </EnumeratedItem>
        <EnumeratedItem CodedValue="ADCDRL05" nciodm:ExtCodeID="C100220">
          <nciodm:CDISCSynonym>Delayed Word Recall: Word [5]</nciodm:CDISCSynonym>
          <nciodm:CDISCDefinition>Alzheimer's Disease Assessment Scale-Cognitive CDISC Version - Delayed word recall task for word 5.</nciodm:CDISCDefinition>
          <nciodm:PreferredTerm>CDISC ADAS-Cog - Delayed Word Recall: Word 5</nciodm:PreferredTerm>
        </EnumeratedItem>
        <EnumeratedItem CodedValue="ADCDRL06" nciodm:ExtCodeID="C100221">
          <nciodm:CDISCSynonym>Delayed Word Recall: Word [6]</nciodm:CDISCSynonym>
          <nciodm:CDISCDefinition>Alzheimer's Disease Assessment Scale-Cognitive CDISC Version - Delayed word recall task for word 6.</nciodm:CDISCDefinition>
          <nciodm:PreferredTerm>CDISC ADAS-Cog - Delayed Word Recall: Word 6</nciodm:PreferredTerm>
        </EnumeratedItem>
        <EnumeratedItem CodedValue="ADCDRL07" nciodm:ExtCodeID="C100222">
          <nciodm:CDISCSynonym>Delayed Word Recall: Word [7]</nciodm:CDISCSynonym>
          <nciodm:CDISCDefinition>Alzheimer's Disease Assessment Scale-Cognitive CDISC Version - Delayed word recall task for word 7.</nciodm:CDISCDefinition>
          <nciodm:PreferredTerm>CDISC ADAS-Cog - Delayed Word Recall: Word 7</nciodm:PreferredTerm>
        </EnumeratedItem>
        <EnumeratedItem CodedValue="ADCDRL08" nciodm:ExtCodeID="C100223">
          <nciodm:CDISCSynonym>Delayed Word Recall: Word [8]</nciodm:CDISCSynonym>
          <nciodm:CDISCDefinition>Alzheimer's Disease Assessment Scale-Cognitive CDISC Version - Delayed word recall task for word 8.</nciodm:CDISCDefinition>
          <nciodm:PreferredTerm>CDISC ADAS-Cog - Delayed Word Recall: Word 8</nciodm:PreferredTerm>
        </EnumeratedItem>
        <EnumeratedItem CodedValue="ADCDRL09" nciodm:ExtCodeID="C100224">
          <nciodm:CDISCSynonym>Delayed Word Recall: Word [9]</nciodm:CDISCSynonym>
          <nciodm:CDISCDefinition>Alzheimer's Disease Assessment Scale-Cognitive CDISC Version - Delayed word recall task for word 9.</nciodm:CDISCDefinition>
          <nciodm:PreferredTerm>CDISC ADAS-Cog - Delayed Word Recall: Word 9</nciodm:PreferredTerm>
        </EnumeratedItem>
        <EnumeratedItem CodedValue="ADCDRL10" nciodm:ExtCodeID="C100225">
          <nciodm:CDISCSynonym>Delayed Word Recall: Word [10]</nciodm:CDISCSynonym>
          <nciodm:CDISCDefinition>Alzheimer's Disease Assessment Scale-Cognitive CDISC Version - Delayed word recall task for word 10.</nciodm:CDISCDefinition>
          <nciodm:PreferredTerm>CDISC ADAS-Cog - Delayed Word Recall: Word 10</nciodm:PreferredTerm>
        </EnumeratedItem>
        <EnumeratedItem CodedValue="ADCCP" nciodm:ExtCodeID="C100226">
          <nciodm:CDISCSynonym>Constructional Praxis</nciodm:CDISCSynonym>
          <nciodm:CDISCDefinition>Alzheimer's Disease Assessment Scale-Cognitive CDISC Version - Summary score for constructional praxis.</nciodm:CDISCDefinition>
          <nciodm:PreferredTerm>CDISC ADAS-Cog - Constructional Praxis Summary Score</nciodm:PreferredTerm>
        </EnumeratedItem>
        <EnumeratedItem CodedValue="ADCCP01" nciodm:ExtCodeID="C100227">
          <nciodm:CDISCSynonym>Constructional Praxis: Circle</nciodm:CDISCSynonym>
          <nciodm:CDISCDefinition>Alzheimer's Disease Assessment Scale-Cognitive CDISC Version - Constructional praxis task for copying a circle.</nciodm:CDISCDefinition>
          <nciodm:PreferredTerm>CDISC ADAS-Cog - Constructional Praxis: Circle</nciodm:PreferredTerm>
        </EnumeratedItem>
        <EnumeratedItem CodedValue="ADCCP02" nciodm:ExtCodeID="C100228">
          <nciodm:CDISCSynonym>Constructional Praxis: 2 Rectangles</nciodm:CDISCSynonym>
          <nciodm:CDISCDefinition>Alzheimer's Disease Assessment Scale-Cognitive CDISC Version - Constructional praxis task for copying two overlapping rectangles.</nciodm:CDISCDefinition>
          <nciodm:PreferredTerm>CDISC ADAS-Cog - Constructional Praxis: 2 Rectangles</nciodm:PreferredTerm>
        </EnumeratedItem>
        <EnumeratedItem CodedValue="ADCCP03" nciodm:ExtCodeID="C100229">
          <nciodm:CDISCSynonym>Constructional Praxis: Diamond</nciodm:CDISCSynonym>
          <nciodm:CDISCDefinition>Alzheimer's Disease Assessment Scale-Cognitive CDISC Version - Constructional praxis task for copying a diamond.</nciodm:CDISCDefinition>
          <nciodm:PreferredTerm>CDISC ADAS-Cog - Constructional Praxis: Diamond</nciodm:PreferredTerm>
        </EnumeratedItem>
        <EnumeratedItem CodedValue="ADCCP04" nciodm:ExtCodeID="C100230">
          <nciodm:CDISCSynonym>Constructional Praxis: Cube</nciodm:CDISCSynonym>
          <nciodm:CDISCDefinition>Alzheimer's Disease Assessment Scale-Cognitive CDISC Version - Constructional praxis task for copying a cube.</nciodm:CDISCDefinition>
          <nciodm:PreferredTerm>CDISC ADAS-Cog - Constructional Praxis: Cube</nciodm:PreferredTerm>
        </EnumeratedItem>
        <EnumeratedItem CodedValue="ADCCPS" nciodm:ExtCodeID="C100231">
          <nciodm:CDISCSynonym>Attempt to Draw</nciodm:CDISCSynonym>
          <nciodm:CDISCDefinition>Alzheimer's Disease Assessment Scale-Cognitive CDISC Version - Constructional praxis attempted to draw, but drew no forms correctly.</nciodm:CDISCDefinition>
          <nciodm:PreferredTerm>CDISC ADAS-Cog - Attempt to Draw</nciodm:PreferredTerm>
        </EnumeratedItem>
        <EnumeratedItem CodedValue="ADCIP" nciodm:ExtCodeID="C100232">
          <nciodm:CDISCSynonym>Ideational Praxis</nciodm:CDISCSynonym>
          <nciodm:CDISCDefinition>Alzheimer's Disease Assessment Scale-Cognitive CDISC Version - Summary score for ideational praxis.</nciodm:CDISCDefinition>
          <nciodm:PreferredTerm>CDISC ADAS-Cog - Ideational Praxis Summary Score</nciodm:PreferredTerm>
        </EnumeratedItem>
        <EnumeratedItem CodedValue="ADCIP01" nciodm:ExtCodeID="C100233">
          <nciodm:CDISCSynonym>Ideational Praxis: Fold</nciodm:CDISCSynonym>
          <nciodm:CDISCDefinition>Alzheimer's Disease Assessment Scale-Cognitive CDISC Version - Ideational praxis task for folding the paper.</nciodm:CDISCDefinition>
          <nciodm:PreferredTerm>CDISC ADAS-Cog - Ideational Praxis: Fold</nciodm:PreferredTerm>
        </EnumeratedItem>
        <EnumeratedItem CodedValue="ADCIP02" nciodm:ExtCodeID="C100234">
          <nciodm:CDISCSynonym>Ideational Praxis: Insert</nciodm:CDISCSynonym>
          <nciodm:CDISCDefinition>Alzheimer's Disease Assessment Scale-Cognitive CDISC Version - Ideational praxis task for put the paper in the envelop.</nciodm:CDISCDefinition>
          <nciodm:PreferredTerm>CDISC ADAS-Cog - Ideational Praxis: Insert</nciodm:PreferredTerm>
        </EnumeratedItem>
        <EnumeratedItem CodedValue="ADCIP03" nciodm:ExtCodeID="C100235">
          <nciodm:CDISCSynonym>Ideational Praxis: Seal</nciodm:CDISCSynonym>
          <nciodm:CDISCDefinition>Alzheimer's Disease Assessment Scale-Cognitive CDISC Version - Ideational praxis task for seal the envelop.</nciodm:CDISCDefinition>
          <nciodm:PreferredTerm>CDISC ADAS-Cog - Ideational Praxis: Seal</nciodm:PreferredTerm>
        </EnumeratedItem>
        <EnumeratedItem CodedValue="ADCIP04" nciodm:ExtCodeID="C100236">
          <nciodm:CDISCSynonym>Ideational Praxis: Address</nciodm:CDISCSynonym>
          <nciodm:CDISCDefinition>Alzheimer's Disease Assessment Scale-Cognitive CDISC Version - Ideational praxis task for address the envelop to yourself.</nciodm:CDISCDefinition>
          <nciodm:PreferredTerm>CDISC ADAS-Cog - Ideational Praxis: Address</nciodm:PreferredTerm>
        </EnumeratedItem>
        <EnumeratedItem CodedValue="ADCIP05" nciodm:ExtCodeID="C100237">
          <nciodm:CDISCSynonym>Ideational Praxis: Stamp</nciodm:CDISCSynonym>
          <nciodm:CDISCDefinition>Alzheimer's Disease Assessment Scale-Cognitive CDISC Version - Ideational praxis task for showing where the stamp goes.</nciodm:CDISCDefinition>
          <nciodm:PreferredTerm>CDISC ADAS-Cog - Ideational Praxis: Stamp</nciodm:PreferredTerm>
        </EnumeratedItem>
        <EnumeratedItem CodedValue="ADCOR" nciodm:ExtCodeID="C100238">
          <nciodm:CDISCSynonym>Orientation</nciodm:CDISCSynonym>
          <nciodm:CDISCDefinition>Alzheimer's Disease Assessment Scale-Cognitive CDISC Version - Summary score for orientation.</nciodm:CDISCDefinition>
          <nciodm:PreferredTerm>CDISC ADAS-Cog - Orientation Summary Score</nciodm:PreferredTerm>
        </EnumeratedItem>
        <EnumeratedItem CodedValue="ADCOR01" nciodm:ExtCodeID="C100239">
          <nciodm:CDISCSynonym>Orientation: Full Name</nciodm:CDISCSynonym>
          <nciodm:CDISCDefinition>Alzheimer's Disease Assessment Scale-Cognitive CDISC Version - Orientation task for knowing one's own full name.</nciodm:CDISCDefinition>
          <nciodm:PreferredTerm>CDISC ADAS-Cog - Orientation: Full Name</nciodm:PreferredTerm>
        </EnumeratedItem>
        <EnumeratedItem CodedValue="ADCOR02" nciodm:ExtCodeID="C100240">
          <nciodm:CDISCSynonym>Orientation: Month</nciodm:CDISCSynonym>
          <nciodm:CDISCDefinition>Alzheimer's Disease Assessment Scale-Cognitive CDISC Version - Orientation task for knowing the current month.</nciodm:CDISCDefinition>
          <nciodm:PreferredTerm>CDISC ADAS-Cog - Orientation: Month</nciodm:PreferredTerm>
        </EnumeratedItem>
        <EnumeratedItem CodedValue="ADCOR03" nciodm:ExtCodeID="C100241">
          <nciodm:CDISCSynonym>Orientation: Date</nciodm:CDISCSynonym>
          <nciodm:CDISCDefinition>Alzheimer's Disease Assessment Scale-Cognitive CDISC Version - Orientation task for knowing the current day.</nciodm:CDISCDefinition>
          <nciodm:PreferredTerm>CDISC ADAS-Cog - Orientation: Date</nciodm:PreferredTerm>
        </EnumeratedItem>
        <EnumeratedItem CodedValue="ADCOR04" nciodm:ExtCodeID="C100242">
          <nciodm:CDISCSynonym>Orientation: Year</nciodm:CDISCSynonym>
          <nciodm:CDISCDefinition>Alzheimer's Disease Assessment Scale-Cognitive CDISC Version - Orientation task for knowing the current year.</nciodm:CDISCDefinition>
          <nciodm:PreferredTerm>CDISC ADAS-Cog - Orientation: Year</nciodm:PreferredTerm>
        </EnumeratedItem>
        <EnumeratedItem CodedValue="ADCOR05" nciodm:ExtCodeID="C100243">
          <nciodm:CDISCSynonym>Orientation: Day of Week</nciodm:CDISCSynonym>
          <nciodm:CDISCDefinition>Alzheimer's Disease Assessment Scale-Cognitive CDISC Version - Orientation task for knowing the current day of the week.</nciodm:CDISCDefinition>
          <nciodm:PreferredTerm>CDISC ADAS-Cog - Orientation: Day of Week</nciodm:PreferredTerm>
        </EnumeratedItem>
        <EnumeratedItem CodedValue="ADCOR06" nciodm:ExtCodeID="C100244">
          <nciodm:CDISCSynonym>Orientation: Season</nciodm:CDISCSynonym>
          <nciodm:CDISCDefinition>Alzheimer's Disease Assessment Scale-Cognitive CDISC Version - Orientation task for knowing the current season.</nciodm:CDISCDefinition>
          <nciodm:PreferredTerm>CDISC ADAS-Cog - Orientation: Season</nciodm:PreferredTerm>
        </EnumeratedItem>
        <EnumeratedItem CodedValue="ADCOR07" nciodm:ExtCodeID="C100245">
          <nciodm:CDISCSynonym>Orientation: Place</nciodm:CDISCSynonym>
          <nciodm:CDISCDefinition>Alzheimer's Disease Assessment Scale-Cognitive CDISC Version - Orientation task for knowing the current place.</nciodm:CDISCDefinition>
          <nciodm:PreferredTerm>CDISC ADAS-Cog - Orientation: Place</nciodm:PreferredTerm>
        </EnumeratedItem>
        <EnumeratedItem CodedValue="ADCOR08" nciodm:ExtCodeID="C100246">
          <nciodm:CDISCSynonym>Orientation: Time</nciodm:CDISCSynonym>
          <nciodm:CDISCDefinition>Alzheimer's Disease Assessment Scale-Cognitive CDISC Version - Orientation task for knowing the approximate current clock time.</nciodm:CDISCDefinition>
          <nciodm:PreferredTerm>CDISC ADAS-Cog - Orientation: Time</nciodm:PreferredTerm>
        </EnumeratedItem>
        <EnumeratedItem CodedValue="ADCRG" nciodm:ExtCodeID="C100247">
          <nciodm:CDISCSynonym>Word Recognition</nciodm:CDISCSynonym>
          <nciodm:CDISCDefinition>Alzheimer's Disease Assessment Scale-Cognitive CDISC Version - Summary score for word recognition across trials 1-3.</nciodm:CDISCDefinition>
          <nciodm:PreferredTerm>CDISC ADAS-Cog - Word Recognition Summary Score</nciodm:PreferredTerm>
        </EnumeratedItem>
        <EnumeratedItem CodedValue="ADCRGT01" nciodm:ExtCodeID="C100248">
          <nciodm:CDISCSynonym>Word Recognition Trial 1</nciodm:CDISCSynonym>
          <nciodm:CDISCDefinition>Alzheimer's Disease Assessment Scale-Cognitive CDISC Version - Sub-score for word recognition trial 1.</nciodm:CDISCDefinition>
          <nciodm:PreferredTerm>CDISC ADAS-Cog - Word Recognition Trial 1 Summary Score</nciodm:PreferredTerm>
        </EnumeratedItem>
        <EnumeratedItem CodedValue="ADCRGT02" nciodm:ExtCodeID="C100249">
          <nciodm:CDISCSynonym>Word Recognition Trial 2</nciodm:CDISCSynonym>
          <nciodm:CDISCDefinition>Alzheimer's Disease Assessment Scale-Cognitive CDISC Version - Sub-score for word recognition trial 2.</nciodm:CDISCDefinition>
          <nciodm:PreferredTerm>CDISC ADAS-Cog - Word Recognition Trial 2 Summary Score</nciodm:PreferredTerm>
        </EnumeratedItem>
        <EnumeratedItem CodedValue="ADCRGT03" nciodm:ExtCodeID="C100250">
          <nciodm:CDISCSynonym>Word Recognition Trial 3</nciodm:CDISCSynonym>
          <nciodm:CDISCDefinition>Alzheimer's Disease Assessment Scale-Cognitive CDISC Version - Sub-score for word recognition trial 3.</nciodm:CDISCDefinition>
          <nciodm:PreferredTerm>CDISC ADAS-Cog - Word Recognition Trial 3 Summary Score</nciodm:PreferredTerm>
        </EnumeratedItem>
        <EnumeratedItem CodedValue="ADCRGW01" nciodm:ExtCodeID="C100251">
          <nciodm:CDISCSynonym>Word Recognition: Word [1]</nciodm:CDISCSynonym>
          <nciodm:CDISCDefinition>Alzheimer's Disease Assessment Scale-Cognitive CDISC Version - Word recognition task for word 1 Trials 1, 2, 3.</nciodm:CDISCDefinition>
          <nciodm:PreferredTerm>CDISC ADAS-Cog - Word Recognition: Word 1</nciodm:PreferredTerm>
        </EnumeratedItem>
        <EnumeratedItem CodedValue="ADCRGW02" nciodm:ExtCodeID="C100252">
          <nciodm:CDISCSynonym>Word Recognition: Word [2]</nciodm:CDISCSynonym>
          <nciodm:CDISCDefinition>Alzheimer's Disease Assessment Scale-Cognitive CDISC Version - Word recognition task for word 2 Trials 1, 2, 3.</nciodm:CDISCDefinition>
          <nciodm:PreferredTerm>CDISC ADAS-Cog - Word Recognition: Word 2</nciodm:PreferredTerm>
        </EnumeratedItem>
        <EnumeratedItem CodedValue="ADCRGW03" nciodm:ExtCodeID="C100253">
          <nciodm:CDISCSynonym>Word Recognition: Word [3]</nciodm:CDISCSynonym>
          <nciodm:CDISCDefinition>Alzheimer's Disease Assessment Scale-Cognitive CDISC Version - Word recognition task for word 3 Trials 1, 2, 3.</nciodm:CDISCDefinition>
          <nciodm:PreferredTerm>CDISC ADAS-Cog - Word Recognition: Word 3</nciodm:PreferredTerm>
        </EnumeratedItem>
        <EnumeratedItem CodedValue="ADCRGW04" nciodm:ExtCodeID="C100254">
          <nciodm:CDISCSynonym>Word Recognition: Word [4]</nciodm:CDISCSynonym>
          <nciodm:CDISCDefinition>Alzheimer's Disease Assessment Scale-Cognitive CDISC Version - Word recognition task for word 4 Trials 1, 2, 3.</nciodm:CDISCDefinition>
          <nciodm:PreferredTerm>CDISC ADAS-Cog - Word Recognition: Word 4</nciodm:PreferredTerm>
        </EnumeratedItem>
        <EnumeratedItem CodedValue="ADCRGW05" nciodm:ExtCodeID="C100255">
          <nciodm:CDISCSynonym>Word Recognition: Word [5]</nciodm:CDISCSynonym>
          <nciodm:CDISCDefinition>Alzheimer's Disease Assessment Scale-Cognitive CDISC Version - Word recognition task for word 5 Trials 1, 2, 3.</nciodm:CDISCDefinition>
          <nciodm:PreferredTerm>CDISC ADAS-Cog - Word Recognition: Word 5</nciodm:PreferredTerm>
        </EnumeratedItem>
        <EnumeratedItem CodedValue="ADCRGW06" nciodm:ExtCodeID="C100256">
          <nciodm:CDISCSynonym>Word Recognition: Word [6]</nciodm:CDISCSynonym>
          <nciodm:CDISCDefinition>Alzheimer's Disease Assessment Scale-Cognitive CDISC Version - Word recognition task for word 6 Trials 1, 2, 3.</nciodm:CDISCDefinition>
          <nciodm:PreferredTerm>CDISC ADAS-Cog - Word Recognition: Word 6</nciodm:PreferredTerm>
        </EnumeratedItem>
        <EnumeratedItem CodedValue="ADCRGW07" nciodm:ExtCodeID="C100257">
          <nciodm:CDISCSynonym>Word Recognition: Word [7]</nciodm:CDISCSynonym>
          <nciodm:CDISCDefinition>Alzheimer's Disease Assessment Scale-Cognitive CDISC Version - Word recognition task for word 7 Trials 1, 2, 3.</nciodm:CDISCDefinition>
          <nciodm:PreferredTerm>CDISC ADAS-Cog - Word Recognition: Word 7</nciodm:PreferredTerm>
        </EnumeratedItem>
        <EnumeratedItem CodedValue="ADCRGW08" nciodm:ExtCodeID="C100258">
          <nciodm:CDISCSynonym>Word Recognition: Word [8]</nciodm:CDISCSynonym>
          <nciodm:CDISCDefinition>Alzheimer's Disease Assessment Scale-Cognitive CDISC Version - Word recognition task for word 8 Trials 1, 2, 3.</nciodm:CDISCDefinition>
          <nciodm:PreferredTerm>CDISC ADAS-Cog - Word Recognition: Word 8</nciodm:PreferredTerm>
        </EnumeratedItem>
        <EnumeratedItem CodedValue="ADCRGW09" nciodm:ExtCodeID="C100259">
          <nciodm:CDISCSynonym>Word Recognition: Word [9]</nciodm:CDISCSynonym>
          <nciodm:CDISCDefinition>Alzheimer's Disease Assessment Scale-Cognitive CDISC Version - Word recognition task for word 9 Trials 1, 2, 3.</nciodm:CDISCDefinition>
          <nciodm:PreferredTerm>CDISC ADAS-Cog - Word Recognition: Word 9</nciodm:PreferredTerm>
        </EnumeratedItem>
        <EnumeratedItem CodedValue="ADCRGW10" nciodm:ExtCodeID="C100260">
          <nciodm:CDISCSynonym>Word Recognition: Word [10]</nciodm:CDISCSynonym>
          <nciodm:CDISCDefinition>Alzheimer's Disease Assessment Scale-Cognitive CDISC Version - Word recognition task for word 10 Trials 1, 2, 3.</nciodm:CDISCDefinition>
          <nciodm:PreferredTerm>CDISC ADAS-Cog - Word Recognition: Word 10</nciodm:PreferredTerm>
        </EnumeratedItem>
        <EnumeratedItem CodedValue="ADCRGW11" nciodm:ExtCodeID="C100261">
          <nciodm:CDISCSynonym>Word Recognition: Word [11]</nciodm:CDISCSynonym>
          <nciodm:CDISCDefinition>Alzheimer's Disease Assessment Scale-Cognitive CDISC Version - Word recognition task for word 11 Trials 1, 2, 3.</nciodm:CDISCDefinition>
          <nciodm:PreferredTerm>CDISC ADAS-Cog - Word Recognition: Word 11</nciodm:PreferredTerm>
        </EnumeratedItem>
        <EnumeratedItem CodedValue="ADCRGW12" nciodm:ExtCodeID="C100262">
          <nciodm:CDISCSynonym>Word Recognition: Word [12]</nciodm:CDISCSynonym>
          <nciodm:CDISCDefinition>Alzheimer's Disease Assessment Scale-Cognitive CDISC Version - Word recognition task for word 12 Trials 1, 2, 3.</nciodm:CDISCDefinition>
          <nciodm:PreferredTerm>CDISC ADAS-Cog - Word Recognition: Word 12</nciodm:PreferredTerm>
        </EnumeratedItem>
        <EnumeratedItem CodedValue="ADCRGW13" nciodm:ExtCodeID="C100263">
          <nciodm:CDISCSynonym>Word Recognition: Word [13]</nciodm:CDISCSynonym>
          <nciodm:CDISCDefinition>Alzheimer's Disease Assessment Scale-Cognitive CDISC Version - Word recognition task for word 13 Trials 1, 2, 3.</nciodm:CDISCDefinition>
          <nciodm:PreferredTerm>CDISC ADAS-Cog - Word Recognition: Word 13</nciodm:PreferredTerm>
        </EnumeratedItem>
        <EnumeratedItem CodedValue="ADCRGW14" nciodm:ExtCodeID="C100264">
          <nciodm:CDISCSynonym>Word Recognition: Word [14]</nciodm:CDISCSynonym>
          <nciodm:CDISCDefinition>Alzheimer's Disease Assessment Scale-Cognitive CDISC Version - Word recognition task for word 14 Trials 1, 2, 3.</nciodm:CDISCDefinition>
          <nciodm:PreferredTerm>CDISC ADAS-Cog - Word Recognition: Word 14</nciodm:PreferredTerm>
        </EnumeratedItem>
        <EnumeratedItem CodedValue="ADCRGW15" nciodm:ExtCodeID="C100265">
          <nciodm:CDISCSynonym>Word Recognition: Word [15]</nciodm:CDISCSynonym>
          <nciodm:CDISCDefinition>Alzheimer's Disease Assessment Scale-Cognitive CDISC Version - Word recognition task for word 15 Trials 1, 2, 3.</nciodm:CDISCDefinition>
          <nciodm:PreferredTerm>CDISC ADAS-Cog - Word Recognition: Word 15</nciodm:PreferredTerm>
        </EnumeratedItem>
        <EnumeratedItem CodedValue="ADCRGW16" nciodm:ExtCodeID="C100266">
          <nciodm:CDISCSynonym>Word Recognition: Word [16]</nciodm:CDISCSynonym>
          <nciodm:CDISCDefinition>Alzheimer's Disease Assessment Scale-Cognitive CDISC Version - Word recognition task for word 16 Trials 1, 2, 3.</nciodm:CDISCDefinition>
          <nciodm:PreferredTerm>CDISC ADAS-Cog - Word Recognition: Word 16</nciodm:PreferredTerm>
        </EnumeratedItem>
        <EnumeratedItem CodedValue="ADCRGW17" nciodm:ExtCodeID="C100267">
          <nciodm:CDISCSynonym>Word Recognition: Word [17]</nciodm:CDISCSynonym>
          <nciodm:CDISCDefinition>Alzheimer's Disease Assessment Scale-Cognitive CDISC Version - Word recognition task for word 17 Trials 1, 2, 3.</nciodm:CDISCDefinition>
          <nciodm:PreferredTerm>CDISC ADAS-Cog - Word Recognition: Word 17</nciodm:PreferredTerm>
        </EnumeratedItem>
        <EnumeratedItem CodedValue="ADCRGW18" nciodm:ExtCodeID="C100268">
          <nciodm:CDISCSynonym>Word Recognition: Word [18]</nciodm:CDISCSynonym>
          <nciodm:CDISCDefinition>Alzheimer's Disease Assessment Scale-Cognitive CDISC Version - Word recognition task for word 18 Trials 1, 2, 3.</nciodm:CDISCDefinition>
          <nciodm:PreferredTerm>CDISC ADAS-Cog - Word Recognition: Word 18</nciodm:PreferredTerm>
        </EnumeratedItem>
        <EnumeratedItem CodedValue="ADCRGW19" nciodm:ExtCodeID="C100269">
          <nciodm:CDISCSynonym>Word Recognition: Word [19]</nciodm:CDISCSynonym>
          <nciodm:CDISCDefinition>Alzheimer's Disease Assessment Scale-Cognitive CDISC Version - Word recognition task for word 19 Trials 1, 2, 3.</nciodm:CDISCDefinition>
          <nciodm:PreferredTerm>CDISC ADAS-Cog - Word Recognition: Word 19</nciodm:PreferredTerm>
        </EnumeratedItem>
        <EnumeratedItem CodedValue="ADCRGW20" nciodm:ExtCodeID="C100270">
          <nciodm:CDISCSynonym>Word Recognition: Word [20]</nciodm:CDISCSynonym>
          <nciodm:CDISCDefinition>Alzheimer's Disease Assessment Scale-Cognitive CDISC Version - Word recognition task for word 20 Trials 1, 2, 3.</nciodm:CDISCDefinition>
          <nciodm:PreferredTerm>CDISC ADAS-Cog - Word Recognition: Word 20</nciodm:PreferredTerm>
        </EnumeratedItem>
        <EnumeratedItem CodedValue="ADCRGW21" nciodm:ExtCodeID="C100271">
          <nciodm:CDISCSynonym>Word Recognition: Word [21]</nciodm:CDISCSynonym>
          <nciodm:CDISCDefinition>Alzheimer's Disease Assessment Scale-Cognitive CDISC Version - Word recognition task for word 21 Trials 1, 2, 3.</nciodm:CDISCDefinition>
          <nciodm:PreferredTerm>CDISC ADAS-Cog - Word Recognition: Word 21</nciodm:PreferredTerm>
        </EnumeratedItem>
        <EnumeratedItem CodedValue="ADCRGW22" nciodm:ExtCodeID="C100272">
          <nciodm:CDISCSynonym>Word Recognition: Word [22]</nciodm:CDISCSynonym>
          <nciodm:CDISCDefinition>Alzheimer's Disease Assessment Scale-Cognitive CDISC Version - Word recognition task for word 22 Trials 1, 2, 3.</nciodm:CDISCDefinition>
          <nciodm:PreferredTerm>CDISC ADAS-Cog - Word Recognition: Word 22</nciodm:PreferredTerm>
        </EnumeratedItem>
        <EnumeratedItem CodedValue="ADCRGW23" nciodm:ExtCodeID="C100273">
          <nciodm:CDISCSynonym>Word Recognition: Word [23]</nciodm:CDISCSynonym>
          <nciodm:CDISCDefinition>Alzheimer's Disease Assessment Scale-Cognitive CDISC Version - Word recognition task for word 23 Trials 1, 2, 3.</nciodm:CDISCDefinition>
          <nciodm:PreferredTerm>CDISC ADAS-Cog - Word Recognition: Word 23</nciodm:PreferredTerm>
        </EnumeratedItem>
        <EnumeratedItem CodedValue="ADCRGW24" nciodm:ExtCodeID="C100274">
          <nciodm:CDISCSynonym>Word Recognition: Word [24]</nciodm:CDISCSynonym>
          <nciodm:CDISCDefinition>Alzheimer's Disease Assessment Scale-Cognitive CDISC Version - Word recognition task for word 24 Trials 1, 2, 3.</nciodm:CDISCDefinition>
          <nciodm:PreferredTerm>CDISC ADAS-Cog - Word Recognition: Word 24</nciodm:PreferredTerm>
        </EnumeratedItem>
        <EnumeratedItem CodedValue="ADCRI" nciodm:ExtCodeID="C100275">
          <nciodm:CDISCSynonym>Remembering Test Instructions</nciodm:CDISCSynonym>
          <nciodm:CDISCDefinition>Alzheimer's Disease Assessment Scale-Cognitive CDISC Version - Remembering test instructions.</nciodm:CDISCDefinition>
          <nciodm:PreferredTerm>CDISC ADAS-Cog - Remembering Test Instructions</nciodm:PreferredTerm>
        </EnumeratedItem>
        <EnumeratedItem CodedValue="ADCSL" nciodm:ExtCodeID="C100276">
          <nciodm:CDISCSynonym>Spoken Language Ability</nciodm:CDISCSynonym>
          <nciodm:CDISCDefinition>Alzheimer's Disease Assessment Scale-Cognitive CDISC Version - Global rating of the quality of speech, or difficulty in making oneself understood.</nciodm:CDISCDefinition>
          <nciodm:PreferredTerm>CDISC ADAS-Cog - Spoken Language Ability</nciodm:PreferredTerm>
        </EnumeratedItem>
        <EnumeratedItem CodedValue="ADCDIF" nciodm:ExtCodeID="C100277">
          <nciodm:CDISCSynonym>Word Finding Difficulty in Spont Speech</nciodm:CDISCSynonym>
          <nciodm:CDISCDefinition>Alzheimer's Disease Assessment Scale-Cognitive CDISC Version - Difficulty finding the desired word in spontaneous speech.</nciodm:CDISCDefinition>
          <nciodm:PreferredTerm>CDISC ADAS-Cog - Word Difficulty in Spontaneous Speech</nciodm:PreferredTerm>
        </EnumeratedItem>
        <EnumeratedItem CodedValue="ADCCMP" nciodm:ExtCodeID="C100278">
          <nciodm:CDISCSynonym>Comprehension</nciodm:CDISCSynonym>
          <nciodm:CDISCDefinition>Alzheimer's Disease Assessment Scale-Cognitive CDISC Version - Ability to comprehend speech.</nciodm:CDISCDefinition>
          <nciodm:PreferredTerm>CDISC ADAS-Cog - Comprehension</nciodm:PreferredTerm>
        </EnumeratedItem>
        <EnumeratedItem CodedValue="ADCCON" nciodm:ExtCodeID="C100279">
          <nciodm:CDISCSynonym>Concentration/Distractibility</nciodm:CDISCSynonym>
          <nciodm:CDISCDefinition>Alzheimer's Disease Assessment Scale-Cognitive CDISC Version - Ability to concentrate or easily be distracted.</nciodm:CDISCDefinition>
          <nciodm:PreferredTerm>CDISC ADAS-Cog - Concentration/Distractibility</nciodm:PreferredTerm>
        </EnumeratedItem>
        <EnumeratedItem CodedValue="ADCNC" nciodm:ExtCodeID="C100280">
          <nciodm:CDISCSynonym>Number Cancellation</nciodm:CDISCSynonym>
          <nciodm:CDISCDefinition>Alzheimer's Disease Assessment Scale-Cognitive CDISC Version - Summary score for the number cancellation tasks.</nciodm:CDISCDefinition>
          <nciodm:PreferredTerm>CDISC ADAS-Cog - Number Cancellation Summary Score</nciodm:PreferredTerm>
        </EnumeratedItem>
        <EnumeratedItem CodedValue="ADCNC01" nciodm:ExtCodeID="C100281">
          <nciodm:CDISCSynonym>Number Cancellation: Correct</nciodm:CDISCSynonym>
          <nciodm:CDISCDefinition>Alzheimer's Disease Assessment Scale-Cognitive CDISC Version - Number of targets hit during the number cancellation task.</nciodm:CDISCDefinition>
          <nciodm:PreferredTerm>CDISC ADAS-Cog - Number Cancellation: Correct</nciodm:PreferredTerm>
        </EnumeratedItem>
        <EnumeratedItem CodedValue="ADCNC02" nciodm:ExtCodeID="C100282">
          <nciodm:CDISCSynonym>Number Cancellation: Errors</nciodm:CDISCSynonym>
          <nciodm:CDISCDefinition>Alzheimer's Disease Assessment Scale-Cognitive CDISC Version - Number of errors during the number cancellation task.</nciodm:CDISCDefinition>
          <nciodm:PreferredTerm>CDISC ADAS-Cog - Number Cancellation: Errors</nciodm:PreferredTerm>
        </EnumeratedItem>
        <EnumeratedItem CodedValue="ADCNC03" nciodm:ExtCodeID="C100283">
          <nciodm:CDISCSynonym>Number Cancellation: Remind</nciodm:CDISCSynonym>
          <nciodm:CDISCDefinition>Alzheimer's Disease Assessment Scale-Cognitive CDISC Version - Number of times reminded for the number cancellation task.</nciodm:CDISCDefinition>
          <nciodm:PreferredTerm>CDISC ADAS-Cog - Number Cancellation: Remind</nciodm:PreferredTerm>
        </EnumeratedItem>
        <EnumeratedItem CodedValue="ADCMZ" nciodm:ExtCodeID="C100284">
          <nciodm:CDISCSynonym>Executive Function Maze</nciodm:CDISCSynonym>
          <nciodm:CDISCDefinition>Alzheimer's Disease Assessment Scale-Cognitive CDISC Version - Summary score for the executive function maze tasks.</nciodm:CDISCDefinition>
          <nciodm:PreferredTerm>CDISC ADAS-Cog - Executive Function Maze Summary Score</nciodm:PreferredTerm>
        </EnumeratedItem>
        <EnumeratedItem CodedValue="ADCMZ01" nciodm:ExtCodeID="C100285">
          <nciodm:CDISCSynonym>Executive Function Maze: Errors</nciodm:CDISCSynonym>
          <nciodm:CDISCDefinition>Alzheimer's Disease Assessment Scale-Cognitive CDISC Version - Number of errors during the executive function maze task.</nciodm:CDISCDefinition>
          <nciodm:PreferredTerm>CDISC ADAS-Cog - Executive Function Maze: Errors</nciodm:PreferredTerm>
        </EnumeratedItem>
        <EnumeratedItem CodedValue="ADCMZ02" nciodm:ExtCodeID="C100286">
          <nciodm:CDISCSynonym>Executive Function Maze: Time</nciodm:CDISCSynonym>
          <nciodm:CDISCDefinition>Alzheimer's Disease Assessment Scale-Cognitive CDISC Version - The time in seconds stored in ISO 8601 time for the executive function maze task.</nciodm:CDISCDefinition>
          <nciodm:PreferredTerm>CDISC ADAS-Cog - Executive Function Maze: Time</nciodm:PreferredTerm>
        </EnumeratedItem>
        <nciodm:CDISCSubmissionValue>ADAS-Cog CDISC Version TESTCD</nciodm:CDISCSubmissionValue>
        <nciodm:CDISCSynonym>Alzheimer's Disease Assessment Scale - Cognitive CDISC Version Test Code</nciodm:CDISCSynonym>
        <nciodm:PreferredTerm>CDISC Questionnaire ADAS-Cog CDISC Version Test Code Terminology</nciodm:PreferredTerm>
      </CodeList>
      <CodeList OID="CL.C100131.ADAS-Cog CDISC Version TEST" Name="Alzheimer's Disease Assessment Scale - Cognitive CDISC Version Test Name" DataType="text" nciodm:ExtCodeID="C100131" nciodm:CodeListExtensible="No">
        <Description>
          <TranslatedText xml:lang="en">ADAS-Cog CDISC Version test name.</TranslatedText>
        </Description>
        <EnumeratedItem CodedValue="Word Recall" nciodm:ExtCodeID="C100177">
          <nciodm:CDISCSynonym>Word Recall</nciodm:CDISCSynonym>
          <nciodm:CDISCDefinition>Alzheimer's Disease Assessment Scale-Cognitive CDISC Version - Word recall task word average score of trials 1, 2, 3.</nciodm:CDISCDefinition>
          <nciodm:PreferredTerm>CDISC ADAS-Cog - Word Recall Average Score</nciodm:PreferredTerm>
        </EnumeratedItem>
        <EnumeratedItem CodedValue="Word Recall Trial 1" nciodm:ExtCodeID="C100178">
          <nciodm:CDISCSynonym>Word Recall Trial 1</nciodm:CDISCSynonym>
          <nciodm:CDISCDefinition>Alzheimer's Disease Assessment Scale-Cognitive CDISC Version - Sub-score for word recall task trial 1.</nciodm:CDISCDefinition>
          <nciodm:PreferredTerm>CDISC ADAS-Cog - Word Recall Trial 1 Subscore</nciodm:PreferredTerm>
        </EnumeratedItem>
        <EnumeratedItem CodedValue="Word Recall Trial 2" nciodm:ExtCodeID="C100179">
          <nciodm:CDISCSynonym>Word Recall Trial 2</nciodm:CDISCSynonym>
          <nciodm:CDISCDefinition>Alzheimer's Disease Assessment Scale-Cognitive CDISC Version - Sub-score for word recall task trial 2.</nciodm:CDISCDefinition>
          <nciodm:PreferredTerm>CDISC ADAS-Cog - Word Recall Trial 2 Subscore</nciodm:PreferredTerm>
        </EnumeratedItem>
        <EnumeratedItem CodedValue="Word Recall Trial 3" nciodm:ExtCodeID="C100180">
          <nciodm:CDISCSynonym>Word Recall Trial 3</nciodm:CDISCSynonym>
          <nciodm:CDISCDefinition>Alzheimer's Disease Assessment Scale-Cognitive CDISC Version - Sub-score for word recall task trial 3.</nciodm:CDISCDefinition>
          <nciodm:PreferredTerm>CDISC ADAS-Cog - Word Recall Trial 3 Subscore</nciodm:PreferredTerm>
        </EnumeratedItem>
        <EnumeratedItem CodedValue="Word Recall: Word [1]" nciodm:ExtCodeID="C100181">
          <nciodm:CDISCSynonym>Word Recall: Word [1]</nciodm:CDISCSynonym>
          <nciodm:CDISCDefinition>Alzheimer's Disease Assessment Scale-Cognitive CDISC Version - Word recall task word 1 for trial 1, 2, 3.</nciodm:CDISCDefinition>
          <nciodm:PreferredTerm>CDISC ADAS-Cog - Word Recall: Word 1</nciodm:PreferredTerm>
        </EnumeratedItem>
        <EnumeratedItem CodedValue="Word Recall: Word [2]" nciodm:ExtCodeID="C100182">
          <nciodm:CDISCSynonym>Word Recall: Word [2]</nciodm:CDISCSynonym>
          <nciodm:CDISCDefinition>Alzheimer's Disease Assessment Scale-Cognitive CDISC Version - Word recall task word 2 for trial 1, 2, 3.</nciodm:CDISCDefinition>
          <nciodm:PreferredTerm>CDISC ADAS-Cog - Word Recall: Word 2</nciodm:PreferredTerm>
        </EnumeratedItem>
        <EnumeratedItem CodedValue="Word Recall: Word [3]" nciodm:ExtCodeID="C100183">
          <nciodm:CDISCSynonym>Word Recall: Word [3]</nciodm:CDISCSynonym>
          <nciodm:CDISCDefinition>Alzheimer's Disease Assessment Scale-Cognitive CDISC Version - Word recall task word 3 for trial 1, 2, 3.</nciodm:CDISCDefinition>
          <nciodm:PreferredTerm>CDISC ADAS-Cog - Word Recall: Word 3</nciodm:PreferredTerm>
        </EnumeratedItem>
        <EnumeratedItem CodedValue="Word Recall: Word [4]" nciodm:ExtCodeID="C100184">
          <nciodm:CDISCSynonym>Word Recall: Word [4]</nciodm:CDISCSynonym>
          <nciodm:CDISCDefinition>Alzheimer's Disease Assessment Scale-Cognitive CDISC Version - Word recall task word 4 for trial 1, 2, 3.</nciodm:CDISCDefinition>
          <nciodm:PreferredTerm>CDISC ADAS-Cog - Word Recall: Word 4</nciodm:PreferredTerm>
        </EnumeratedItem>
        <EnumeratedItem CodedValue="Word Recall: Word [5]" nciodm:ExtCodeID="C100185">
          <nciodm:CDISCSynonym>Word Recall: Word [5]</nciodm:CDISCSynonym>
          <nciodm:CDISCDefinition>Alzheimer's Disease Assessment Scale-Cognitive CDISC Version - Word recall task word 5 for trial 1, 2, 3.</nciodm:CDISCDefinition>
          <nciodm:PreferredTerm>CDISC ADAS-Cog - Word Recall: Word 5</nciodm:PreferredTerm>
        </EnumeratedItem>
        <EnumeratedItem CodedValue="Word Recall: Word [6]" nciodm:ExtCodeID="C100186">
          <nciodm:CDISCSynonym>Word Recall: Word [6]</nciodm:CDISCSynonym>
          <nciodm:CDISCDefinition>Alzheimer's Disease Assessment Scale-Cognitive CDISC Version - Word recall task word 6 for trial 1, 2, 3.</nciodm:CDISCDefinition>
          <nciodm:PreferredTerm>CDISC ADAS-Cog - Word Recall: Word 6</nciodm:PreferredTerm>
        </EnumeratedItem>
        <EnumeratedItem CodedValue="Word Recall: Word [7]" nciodm:ExtCodeID="C100187">
          <nciodm:CDISCSynonym>Word Recall: Word [7]</nciodm:CDISCSynonym>
          <nciodm:CDISCDefinition>Alzheimer's Disease Assessment Scale-Cognitive CDISC Version - Word recall task word 7 for trial 1, 2, 3.</nciodm:CDISCDefinition>
          <nciodm:PreferredTerm>CDISC ADAS-Cog - Word Recall: Word 7</nciodm:PreferredTerm>
        </EnumeratedItem>
        <EnumeratedItem CodedValue="Word Recall: Word [8]" nciodm:ExtCodeID="C100188">
          <nciodm:CDISCSynonym>Word Recall: Word [8]</nciodm:CDISCSynonym>
          <nciodm:CDISCDefinition>Alzheimer's Disease Assessment Scale-Cognitive CDISC Version - Word recall task word 8 for trial 1, 2, 3.</nciodm:CDISCDefinition>
          <nciodm:PreferredTerm>CDISC ADAS-Cog - Word Recall: Word 8</nciodm:PreferredTerm>
        </EnumeratedItem>
        <EnumeratedItem CodedValue="Word Recall: Word [9]" nciodm:ExtCodeID="C100189">
          <nciodm:CDISCSynonym>Word Recall: Word [9]</nciodm:CDISCSynonym>
          <nciodm:CDISCDefinition>Alzheimer's Disease Assessment Scale-Cognitive CDISC Version - Word recall task word 9 for trial 1, 2, 3.</nciodm:CDISCDefinition>
          <nciodm:PreferredTerm>CDISC ADAS-Cog - Word Recall: Word 9</nciodm:PreferredTerm>
        </EnumeratedItem>
        <EnumeratedItem CodedValue="Word Recall: Word [10]" nciodm:ExtCodeID="C100190">
          <nciodm:CDISCSynonym>Word Recall: Word [10]</nciodm:CDISCSynonym>
          <nciodm:CDISCDefinition>Alzheimer's Disease Assessment Scale-Cognitive CDISC Version - Word recall task word 10 for trial 1, 2, 3.</nciodm:CDISCDefinition>
          <nciodm:PreferredTerm>CDISC ADAS-Cog - Word Recall: Word 10</nciodm:PreferredTerm>
        </EnumeratedItem>
        <EnumeratedItem CodedValue="Naming Objects and Fingers" nciodm:ExtCodeID="C100191">
          <nciodm:CDISCSynonym>Naming Objects and Fingers</nciodm:CDISCSynonym>
          <nciodm:CDISCDefinition>Alzheimer's Disease Assessment Scale-Cognitive CDISC Version - Naming task summary score for object and fingers.</nciodm:CDISCDefinition>
          <nciodm:PreferredTerm>CDISC ADAS-Cog - Naming Objects and Fingers Summary Score</nciodm:PreferredTerm>
        </EnumeratedItem>
        <EnumeratedItem CodedValue="Naming Objects and Fingers: 1" nciodm:ExtCodeID="C100192">
          <nciodm:CDISCSynonym>Naming Objects and Fingers: 1</nciodm:CDISCSynonym>
          <nciodm:CDISCDefinition>Alzheimer's Disease Assessment Scale-Cognitive CDISC Version - Naming task for object 1.</nciodm:CDISCDefinition>
          <nciodm:PreferredTerm>CDISC ADAS-Cog - Naming Objects and Fingers: 1</nciodm:PreferredTerm>
        </EnumeratedItem>
        <EnumeratedItem CodedValue="Naming Objects and Fingers: 2" nciodm:ExtCodeID="C100193">
          <nciodm:CDISCSynonym>Naming Objects and Fingers: 2</nciodm:CDISCSynonym>
          <nciodm:CDISCDefinition>Alzheimer's Disease Assessment Scale-Cognitive CDISC Version - Naming task for object 2.</nciodm:CDISCDefinition>
          <nciodm:PreferredTerm>CDISC ADAS-Cog - Naming Objects and Fingers: 2</nciodm:PreferredTerm>
        </EnumeratedItem>
        <EnumeratedItem CodedValue="Naming Objects and Fingers: 3" nciodm:ExtCodeID="C100194">
          <nciodm:CDISCSynonym>Naming Objects and Fingers: 3</nciodm:CDISCSynonym>
          <nciodm:CDISCDefinition>Alzheimer's Disease Assessment Scale-Cognitive CDISC Version - Naming task for object 3.</nciodm:CDISCDefinition>
          <nciodm:PreferredTerm>CDISC ADAS-Cog - Naming Objects and Fingers: 3</nciodm:PreferredTerm>
        </EnumeratedItem>
        <EnumeratedItem CodedValue="Naming Objects and Fingers: 4" nciodm:ExtCodeID="C100195">
          <nciodm:CDISCSynonym>Naming Objects and Fingers: 4</nciodm:CDISCSynonym>
          <nciodm:CDISCDefinition>Alzheimer's Disease Assessment Scale-Cognitive CDISC Version - Naming task for object 4.</nciodm:CDISCDefinition>
          <nciodm:PreferredTerm>CDISC ADAS-Cog - Naming Objects and Fingers: 4</nciodm:PreferredTerm>
        </EnumeratedItem>
        <EnumeratedItem CodedValue="Naming Objects and Fingers: 5" nciodm:ExtCodeID="C100196">
          <nciodm:CDISCSynonym>Naming Objects and Fingers: 5</nciodm:CDISCSynonym>
          <nciodm:CDISCDefinition>Alzheimer's Disease Assessment Scale-Cognitive CDISC Version - Naming task for object 5.</nciodm:CDISCDefinition>
          <nciodm:PreferredTerm>CDISC ADAS-Cog - Naming Objects and Fingers: 5</nciodm:PreferredTerm>
        </EnumeratedItem>
        <EnumeratedItem CodedValue="Naming Objects and Fingers: 6" nciodm:ExtCodeID="C100197">
          <nciodm:CDISCSynonym>Naming Objects and Fingers: 6</nciodm:CDISCSynonym>
          <nciodm:CDISCDefinition>Alzheimer's Disease Assessment Scale-Cognitive CDISC Version - Naming task for object 6.</nciodm:CDISCDefinition>
          <nciodm:PreferredTerm>CDISC ADAS-Cog - Naming Objects and Fingers: 6</nciodm:PreferredTerm>
        </EnumeratedItem>
        <EnumeratedItem CodedValue="Naming Objects and Fingers: 7" nciodm:ExtCodeID="C100198">
          <nciodm:CDISCSynonym>Naming Objects and Fingers: 7</nciodm:CDISCSynonym>
          <nciodm:CDISCDefinition>Alzheimer's Disease Assessment Scale-Cognitive CDISC Version - Naming task for object 7.</nciodm:CDISCDefinition>
          <nciodm:PreferredTerm>CDISC ADAS-Cog - Naming Objects and Fingers: 7</nciodm:PreferredTerm>
        </EnumeratedItem>
        <EnumeratedItem CodedValue="Naming Objects and Fingers: 8" nciodm:ExtCodeID="C100199">
          <nciodm:CDISCSynonym>Naming Objects and Fingers: 8</nciodm:CDISCSynonym>
          <nciodm:CDISCDefinition>Alzheimer's Disease Assessment Scale-Cognitive CDISC Version - Naming task for object 8.</nciodm:CDISCDefinition>
          <nciodm:PreferredTerm>CDISC ADAS-Cog - Naming Objects and Fingers: 8</nciodm:PreferredTerm>
        </EnumeratedItem>
        <EnumeratedItem CodedValue="Naming Objects and Fingers: 9" nciodm:ExtCodeID="C100200">
          <nciodm:CDISCSynonym>Naming Objects and Fingers: 9</nciodm:CDISCSynonym>
          <nciodm:CDISCDefinition>Alzheimer's Disease Assessment Scale-Cognitive CDISC Version - Naming task for object 9.</nciodm:CDISCDefinition>
          <nciodm:PreferredTerm>CDISC ADAS-Cog - Naming Objects and Fingers: 9</nciodm:PreferredTerm>
        </EnumeratedItem>
        <EnumeratedItem CodedValue="Naming Objects and Fingers: 10" nciodm:ExtCodeID="C100201">
          <nciodm:CDISCSynonym>Naming Objects and Fingers: 10</nciodm:CDISCSynonym>
          <nciodm:CDISCDefinition>Alzheimer's Disease Assessment Scale-Cognitive CDISC Version - Naming task for object 10.</nciodm:CDISCDefinition>
          <nciodm:PreferredTerm>CDISC ADAS-Cog - Naming Objects and Fingers: 10</nciodm:PreferredTerm>
        </EnumeratedItem>
        <EnumeratedItem CodedValue="Naming Objects and Fingers: 11" nciodm:ExtCodeID="C100202">
          <nciodm:CDISCSynonym>Naming Objects and Fingers: 11</nciodm:CDISCSynonym>
          <nciodm:CDISCDefinition>Alzheimer's Disease Assessment Scale-Cognitive CDISC Version - Naming task for object 11.</nciodm:CDISCDefinition>
          <nciodm:PreferredTerm>CDISC ADAS-Cog - Naming Objects and Fingers: 11</nciodm:PreferredTerm>
        </EnumeratedItem>
        <EnumeratedItem CodedValue="Naming Objects and Fingers: 12" nciodm:ExtCodeID="C100203">
          <nciodm:CDISCSynonym>Naming Objects and Fingers: 12</nciodm:CDISCSynonym>
          <nciodm:CDISCDefinition>Alzheimer's Disease Assessment Scale-Cognitive CDISC Version - Naming task for object 12.</nciodm:CDISCDefinition>
          <nciodm:PreferredTerm>CDISC ADAS-Cog - Naming Objects and Fingers: 12</nciodm:PreferredTerm>
        </EnumeratedItem>
        <EnumeratedItem CodedValue="Naming Objects and Fingers: Thumb" nciodm:ExtCodeID="C100204">
          <nciodm:CDISCSynonym>Naming Objects and Fingers: Thumb</nciodm:CDISCSynonym>
          <nciodm:CDISCDefinition>Alzheimer's Disease Assessment Scale-Cognitive CDISC Version - Naming task for fingers of the dominant hand, thumb.</nciodm:CDISCDefinition>
          <nciodm:PreferredTerm>CDISC ADAS-Cog - Naming Objects and Fingers: Thumb</nciodm:PreferredTerm>
        </EnumeratedItem>
        <EnumeratedItem CodedValue="Naming Objects and Fingers: Pointer" nciodm:ExtCodeID="C100205">
          <nciodm:CDISCSynonym>Naming Objects and Fingers: Pointer</nciodm:CDISCSynonym>
          <nciodm:CDISCDefinition>Alzheimer's Disease Assessment Scale-Cognitive CDISC Version - Naming task for fingers of the dominant hand, index, or pointer finger.</nciodm:CDISCDefinition>
          <nciodm:PreferredTerm>CDISC ADAS-Cog - Naming Objects and Fingers: Pointer</nciodm:PreferredTerm>
        </EnumeratedItem>
        <EnumeratedItem CodedValue="Naming Objects and Fingers: Middle" nciodm:ExtCodeID="C100206">
          <nciodm:CDISCSynonym>Naming Objects and Fingers: Middle</nciodm:CDISCSynonym>
          <nciodm:CDISCDefinition>Alzheimer's Disease Assessment Scale-Cognitive CDISC Version - Naming task for fingers of the dominant hand, middle finger.</nciodm:CDISCDefinition>
          <nciodm:PreferredTerm>CDISC ADAS-Cog - Naming Objects and Fingers: Middle</nciodm:PreferredTerm>
        </EnumeratedItem>
        <EnumeratedItem CodedValue="Naming Objects and Fingers: Ring" nciodm:ExtCodeID="C100207">
          <nciodm:CDISCSynonym>Naming Objects and Fingers: Ring</nciodm:CDISCSynonym>
          <nciodm:CDISCDefinition>Alzheimer's Disease Assessment Scale-Cognitive CDISC Version - Naming task for fingers of the dominant hand, ring finger.</nciodm:CDISCDefinition>
          <nciodm:PreferredTerm>CDISC ADAS-Cog - Naming Objects and Fingers: Ring</nciodm:PreferredTerm>
        </EnumeratedItem>
        <EnumeratedItem CodedValue="Naming Objects and Fingers: Pinky" nciodm:ExtCodeID="C100208">
          <nciodm:CDISCSynonym>Naming Objects and Fingers: Pinky</nciodm:CDISCSynonym>
          <nciodm:CDISCDefinition>Alzheimer's Disease Assessment Scale-Cognitive CDISC Version - Naming task for fingers of the dominant hand, little finger or pinky.</nciodm:CDISCDefinition>
          <nciodm:PreferredTerm>CDISC ADAS-Cog - Naming Objects and Fingers: Pinky</nciodm:PreferredTerm>
        </EnumeratedItem>
        <EnumeratedItem CodedValue="Commands" nciodm:ExtCodeID="C100209">
          <nciodm:CDISCSynonym>Commands</nciodm:CDISCSynonym>
          <nciodm:CDISCDefinition>Alzheimer's Disease Assessment Scale-Cognitive CDISC Version - Summary score for commands.</nciodm:CDISCDefinition>
          <nciodm:PreferredTerm>CDISC ADAS-Cog - Commands Summary Score</nciodm:PreferredTerm>
        </EnumeratedItem>
        <EnumeratedItem CodedValue="Commands: Fist" nciodm:ExtCodeID="C100210">
          <nciodm:CDISCSynonym>Commands: Fist</nciodm:CDISCSynonym>
          <nciodm:CDISCDefinition>Alzheimer's Disease Assessment Scale-Cognitive CDISC Version - Commands task for making a fist.</nciodm:CDISCDefinition>
          <nciodm:PreferredTerm>CDISC ADAS-Cog - Commands: Fist</nciodm:PreferredTerm>
        </EnumeratedItem>
        <EnumeratedItem CodedValue="Commands: Ceiling" nciodm:ExtCodeID="C100211">
          <nciodm:CDISCSynonym>Commands: Ceiling</nciodm:CDISCSynonym>
          <nciodm:CDISCDefinition>Alzheimer's Disease Assessment Scale-Cognitive CDISC Version - Commands task for pointing to the ceiling then to the floor.</nciodm:CDISCDefinition>
          <nciodm:PreferredTerm>CDISC ADAS-Cog - Commands: Ceiling</nciodm:PreferredTerm>
        </EnumeratedItem>
        <EnumeratedItem CodedValue="Commands: Pencil" nciodm:ExtCodeID="C100212">
          <nciodm:CDISCSynonym>Commands: Pencil</nciodm:CDISCSynonym>
          <nciodm:CDISCDefinition>Alzheimer's Disease Assessment Scale-Cognitive CDISC Version - Commands task for put the pencil on top of the card and then put it back.</nciodm:CDISCDefinition>
          <nciodm:PreferredTerm>CDISC ADAS-Cog - Commands: Pencil</nciodm:PreferredTerm>
        </EnumeratedItem>
        <EnumeratedItem CodedValue="Commands: Watch" nciodm:ExtCodeID="C100213">
          <nciodm:CDISCSynonym>Commands: Watch</nciodm:CDISCSynonym>
          <nciodm:CDISCDefinition>Alzheimer's Disease Assessment Scale-Cognitive CDISC Version - Commands task for put the watch on the other side of the pencil and then turn over the card.</nciodm:CDISCDefinition>
          <nciodm:PreferredTerm>CDISC ADAS-Cog - Commands: Watch</nciodm:PreferredTerm>
        </EnumeratedItem>
        <EnumeratedItem CodedValue="Commands: Shoulder" nciodm:ExtCodeID="C100214">
          <nciodm:CDISCSynonym>Commands: Shoulder</nciodm:CDISCSynonym>
          <nciodm:CDISCDefinition>Alzheimer's Disease Assessment Scale-Cognitive CDISC Version - Commands task for tap each shoulder twice with two fingers keeping your eyes shut.</nciodm:CDISCDefinition>
          <nciodm:PreferredTerm>CDISC ADAS-Cog - Commands: Shoulder</nciodm:PreferredTerm>
        </EnumeratedItem>
        <EnumeratedItem CodedValue="Delayed Word Recall" nciodm:ExtCodeID="C100215">
          <nciodm:CDISCSynonym>Delayed Word Recall</nciodm:CDISCSynonym>
          <nciodm:CDISCDefinition>Alzheimer's Disease Assessment Scale-Cognitive CDISC Version - Summary score for delayed word recall.</nciodm:CDISCDefinition>
          <nciodm:PreferredTerm>CDISC ADAS-Cog - Delayed Word Recall Summary Score</nciodm:PreferredTerm>
        </EnumeratedItem>
        <EnumeratedItem CodedValue="Delayed Word Recall: Word [1]" nciodm:ExtCodeID="C100216">
          <nciodm:CDISCSynonym>Delayed Word Recall: Word [1]</nciodm:CDISCSynonym>
          <nciodm:CDISCDefinition>Alzheimer's Disease Assessment Scale-Cognitive CDISC Version - Delayed word recall task for word 1.</nciodm:CDISCDefinition>
          <nciodm:PreferredTerm>CDISC ADAS-Cog - Delayed Word Recall: Word 1</nciodm:PreferredTerm>
        </EnumeratedItem>
        <EnumeratedItem CodedValue="Delayed Word Recall: Word [2]" nciodm:ExtCodeID="C100217">
          <nciodm:CDISCSynonym>Delayed Word Recall: Word [2]</nciodm:CDISCSynonym>
          <nciodm:CDISCDefinition>Alzheimer's Disease Assessment Scale-Cognitive CDISC Version - Delayed word recall task for word 2.</nciodm:CDISCDefinition>
          <nciodm:PreferredTerm>CDISC ADAS-Cog - Delayed Word Recall: Word 2</nciodm:PreferredTerm>
        </EnumeratedItem>
        <EnumeratedItem CodedValue="Delayed Word Recall: Word [3]" nciodm:ExtCodeID="C100218">
          <nciodm:CDISCSynonym>Delayed Word Recall: Word [3]</nciodm:CDISCSynonym>
          <nciodm:CDISCDefinition>Alzheimer's Disease Assessment Scale-Cognitive CDISC Version - Delayed word recall task for word 3.</nciodm:CDISCDefinition>
          <nciodm:PreferredTerm>CDISC ADAS-Cog - Delayed Word Recall: Word 3</nciodm:PreferredTerm>
        </EnumeratedItem>
        <EnumeratedItem CodedValue="Delayed Word Recall: Word [4]" nciodm:ExtCodeID="C100219">
          <nciodm:CDISCSynonym>Delayed Word Recall: Word [4]</nciodm:CDISCSynonym>
          <nciodm:CDISCDefinition>Alzheimer's Disease Assessment Scale-Cognitive CDISC Version - Delayed word recall task for word 4.</nciodm:CDISCDefinition>
          <nciodm:PreferredTerm>CDISC ADAS-Cog - Delayed Word Recall: Word 4</nciodm:PreferredTerm>
        </EnumeratedItem>
        <EnumeratedItem CodedValue="Delayed Word Recall: Word [5]" nciodm:ExtCodeID="C100220">
          <nciodm:CDISCSynonym>Delayed Word Recall: Word [5]</nciodm:CDISCSynonym>
          <nciodm:CDISCDefinition>Alzheimer's Disease Assessment Scale-Cognitive CDISC Version - Delayed word recall task for word 5.</nciodm:CDISCDefinition>
          <nciodm:PreferredTerm>CDISC ADAS-Cog - Delayed Word Recall: Word 5</nciodm:PreferredTerm>
        </EnumeratedItem>
        <EnumeratedItem CodedValue="Delayed Word Recall: Word [6]" nciodm:ExtCodeID="C100221">
          <nciodm:CDISCSynonym>Delayed Word Recall: Word [6]</nciodm:CDISCSynonym>
          <nciodm:CDISCDefinition>Alzheimer's Disease Assessment Scale-Cognitive CDISC Version - Delayed word recall task for word 6.</nciodm:CDISCDefinition>
          <nciodm:PreferredTerm>CDISC ADAS-Cog - Delayed Word Recall: Word 6</nciodm:PreferredTerm>
        </EnumeratedItem>
        <EnumeratedItem CodedValue="Delayed Word Recall: Word [7]" nciodm:ExtCodeID="C100222">
          <nciodm:CDISCSynonym>Delayed Word Recall: Word [7]</nciodm:CDISCSynonym>
          <nciodm:CDISCDefinition>Alzheimer's Disease Assessment Scale-Cognitive CDISC Version - Delayed word recall task for word 7.</nciodm:CDISCDefinition>
          <nciodm:PreferredTerm>CDISC ADAS-Cog - Delayed Word Recall: Word 7</nciodm:PreferredTerm>
        </EnumeratedItem>
        <EnumeratedItem CodedValue="Delayed Word Recall: Word [8]" nciodm:ExtCodeID="C100223">
          <nciodm:CDISCSynonym>Delayed Word Recall: Word [8]</nciodm:CDISCSynonym>
          <nciodm:CDISCDefinition>Alzheimer's Disease Assessment Scale-Cognitive CDISC Version - Delayed word recall task for word 8.</nciodm:CDISCDefinition>
          <nciodm:PreferredTerm>CDISC ADAS-Cog - Delayed Word Recall: Word 8</nciodm:PreferredTerm>
        </EnumeratedItem>
        <EnumeratedItem CodedValue="Delayed Word Recall: Word [9]" nciodm:ExtCodeID="C100224">
          <nciodm:CDISCSynonym>Delayed Word Recall: Word [9]</nciodm:CDISCSynonym>
          <nciodm:CDISCDefinition>Alzheimer's Disease Assessment Scale-Cognitive CDISC Version - Delayed word recall task for word 9.</nciodm:CDISCDefinition>
          <nciodm:PreferredTerm>CDISC ADAS-Cog - Delayed Word Recall: Word 9</nciodm:PreferredTerm>
        </EnumeratedItem>
        <EnumeratedItem CodedValue="Delayed Word Recall: Word [10]" nciodm:ExtCodeID="C100225">
          <nciodm:CDISCSynonym>Delayed Word Recall: Word [10]</nciodm:CDISCSynonym>
          <nciodm:CDISCDefinition>Alzheimer's Disease Assessment Scale-Cognitive CDISC Version - Delayed word recall task for word 10.</nciodm:CDISCDefinition>
          <nciodm:PreferredTerm>CDISC ADAS-Cog - Delayed Word Recall: Word 10</nciodm:PreferredTerm>
        </EnumeratedItem>
        <EnumeratedItem CodedValue="Constructional Praxis" nciodm:ExtCodeID="C100226">
          <nciodm:CDISCSynonym>Constructional Praxis</nciodm:CDISCSynonym>
          <nciodm:CDISCDefinition>Alzheimer's Disease Assessment Scale-Cognitive CDISC Version - Summary score for constructional praxis.</nciodm:CDISCDefinition>
          <nciodm:PreferredTerm>CDISC ADAS-Cog - Constructional Praxis Summary Score</nciodm:PreferredTerm>
        </EnumeratedItem>
        <EnumeratedItem CodedValue="Constructional Praxis: Circle" nciodm:ExtCodeID="C100227">
          <nciodm:CDISCSynonym>Constructional Praxis: Circle</nciodm:CDISCSynonym>
          <nciodm:CDISCDefinition>Alzheimer's Disease Assessment Scale-Cognitive CDISC Version - Constructional praxis task for copying a circle.</nciodm:CDISCDefinition>
          <nciodm:PreferredTerm>CDISC ADAS-Cog - Constructional Praxis: Circle</nciodm:PreferredTerm>
        </EnumeratedItem>
        <EnumeratedItem CodedValue="Constructional Praxis: 2 Rectangles" nciodm:ExtCodeID="C100228">
          <nciodm:CDISCSynonym>Constructional Praxis: 2 Rectangles</nciodm:CDISCSynonym>
          <nciodm:CDISCDefinition>Alzheimer's Disease Assessment Scale-Cognitive CDISC Version - Constructional praxis task for copying two overlapping rectangles.</nciodm:CDISCDefinition>
          <nciodm:PreferredTerm>CDISC ADAS-Cog - Constructional Praxis: 2 Rectangles</nciodm:PreferredTerm>
        </EnumeratedItem>
        <EnumeratedItem CodedValue="Constructional Praxis: Diamond" nciodm:ExtCodeID="C100229">
          <nciodm:CDISCSynonym>Constructional Praxis: Diamond</nciodm:CDISCSynonym>
          <nciodm:CDISCDefinition>Alzheimer's Disease Assessment Scale-Cognitive CDISC Version - Constructional praxis task for copying a diamond.</nciodm:CDISCDefinition>
          <nciodm:PreferredTerm>CDISC ADAS-Cog - Constructional Praxis: Diamond</nciodm:PreferredTerm>
        </EnumeratedItem>
        <EnumeratedItem CodedValue="Constructional Praxis: Cube" nciodm:ExtCodeID="C100230">
          <nciodm:CDISCSynonym>Constructional Praxis: Cube</nciodm:CDISCSynonym>
          <nciodm:CDISCDefinition>Alzheimer's Disease Assessment Scale-Cognitive CDISC Version - Constructional praxis task for copying a cube.</nciodm:CDISCDefinition>
          <nciodm:PreferredTerm>CDISC ADAS-Cog - Constructional Praxis: Cube</nciodm:PreferredTerm>
        </EnumeratedItem>
        <EnumeratedItem CodedValue="Attempt to Draw" nciodm:ExtCodeID="C100231">
          <nciodm:CDISCSynonym>Attempt to Draw</nciodm:CDISCSynonym>
          <nciodm:CDISCDefinition>Alzheimer's Disease Assessment Scale-Cognitive CDISC Version - Constructional praxis attempted to draw, but drew no forms correctly.</nciodm:CDISCDefinition>
          <nciodm:PreferredTerm>CDISC ADAS-Cog - Attempt to Draw</nciodm:PreferredTerm>
        </EnumeratedItem>
        <EnumeratedItem CodedValue="Ideational Praxis" nciodm:ExtCodeID="C100232">
          <nciodm:CDISCSynonym>Ideational Praxis</nciodm:CDISCSynonym>
          <nciodm:CDISCDefinition>Alzheimer's Disease Assessment Scale-Cognitive CDISC Version - Summary score for ideational praxis.</nciodm:CDISCDefinition>
          <nciodm:PreferredTerm>CDISC ADAS-Cog - Ideational Praxis Summary Score</nciodm:PreferredTerm>
        </EnumeratedItem>
        <EnumeratedItem CodedValue="Ideational Praxis: Fold" nciodm:ExtCodeID="C100233">
          <nciodm:CDISCSynonym>Ideational Praxis: Fold</nciodm:CDISCSynonym>
          <nciodm:CDISCDefinition>Alzheimer's Disease Assessment Scale-Cognitive CDISC Version - Ideational praxis task for folding the paper.</nciodm:CDISCDefinition>
          <nciodm:PreferredTerm>CDISC ADAS-Cog - Ideational Praxis: Fold</nciodm:PreferredTerm>
        </EnumeratedItem>
        <EnumeratedItem CodedValue="Ideational Praxis: Insert" nciodm:ExtCodeID="C100234">
          <nciodm:CDISCSynonym>Ideational Praxis: Insert</nciodm:CDISCSynonym>
          <nciodm:CDISCDefinition>Alzheimer's Disease Assessment Scale-Cognitive CDISC Version - Ideational praxis task for put the paper in the envelop.</nciodm:CDISCDefinition>
          <nciodm:PreferredTerm>CDISC ADAS-Cog - Ideational Praxis: Insert</nciodm:PreferredTerm>
        </EnumeratedItem>
        <EnumeratedItem CodedValue="Ideational Praxis: Seal" nciodm:ExtCodeID="C100235">
          <nciodm:CDISCSynonym>Ideational Praxis: Seal</nciodm:CDISCSynonym>
          <nciodm:CDISCDefinition>Alzheimer's Disease Assessment Scale-Cognitive CDISC Version - Ideational praxis task for seal the envelop.</nciodm:CDISCDefinition>
          <nciodm:PreferredTerm>CDISC ADAS-Cog - Ideational Praxis: Seal</nciodm:PreferredTerm>
        </EnumeratedItem>
        <EnumeratedItem CodedValue="Ideational Praxis: Address" nciodm:ExtCodeID="C100236">
          <nciodm:CDISCSynonym>Ideational Praxis: Address</nciodm:CDISCSynonym>
          <nciodm:CDISCDefinition>Alzheimer's Disease Assessment Scale-Cognitive CDISC Version - Ideational praxis task for address the envelop to yourself.</nciodm:CDISCDefinition>
          <nciodm:PreferredTerm>CDISC ADAS-Cog - Ideational Praxis: Address</nciodm:PreferredTerm>
        </EnumeratedItem>
        <EnumeratedItem CodedValue="Ideational Praxis: Stamp" nciodm:ExtCodeID="C100237">
          <nciodm:CDISCSynonym>Ideational Praxis: Stamp</nciodm:CDISCSynonym>
          <nciodm:CDISCDefinition>Alzheimer's Disease Assessment Scale-Cognitive CDISC Version - Ideational praxis task for showing where the stamp goes.</nciodm:CDISCDefinition>
          <nciodm:PreferredTerm>CDISC ADAS-Cog - Ideational Praxis: Stamp</nciodm:PreferredTerm>
        </EnumeratedItem>
        <EnumeratedItem CodedValue="Orientation" nciodm:ExtCodeID="C100238">
          <nciodm:CDISCSynonym>Orientation</nciodm:CDISCSynonym>
          <nciodm:CDISCDefinition>Alzheimer's Disease Assessment Scale-Cognitive CDISC Version - Summary score for orientation.</nciodm:CDISCDefinition>
          <nciodm:PreferredTerm>CDISC ADAS-Cog - Orientation Summary Score</nciodm:PreferredTerm>
        </EnumeratedItem>
        <EnumeratedItem CodedValue="Orientation: Full Name" nciodm:ExtCodeID="C100239">
          <nciodm:CDISCSynonym>Orientation: Full Name</nciodm:CDISCSynonym>
          <nciodm:CDISCDefinition>Alzheimer's Disease Assessment Scale-Cognitive CDISC Version - Orientation task for knowing one's own full name.</nciodm:CDISCDefinition>
          <nciodm:PreferredTerm>CDISC ADAS-Cog - Orientation: Full Name</nciodm:PreferredTerm>
        </EnumeratedItem>
        <EnumeratedItem CodedValue="Orientation: Month" nciodm:ExtCodeID="C100240">
          <nciodm:CDISCSynonym>Orientation: Month</nciodm:CDISCSynonym>
          <nciodm:CDISCDefinition>Alzheimer's Disease Assessment Scale-Cognitive CDISC Version - Orientation task for knowing the current month.</nciodm:CDISCDefinition>
          <nciodm:PreferredTerm>CDISC ADAS-Cog - Orientation: Month</nciodm:PreferredTerm>
        </EnumeratedItem>
        <EnumeratedItem CodedValue="Orientation: Date" nciodm:ExtCodeID="C100241">
          <nciodm:CDISCSynonym>Orientation: Date</nciodm:CDISCSynonym>
          <nciodm:CDISCDefinition>Alzheimer's Disease Assessment Scale-Cognitive CDISC Version - Orientation task for knowing the current day.</nciodm:CDISCDefinition>
          <nciodm:PreferredTerm>CDISC ADAS-Cog - Orientation: Date</nciodm:PreferredTerm>
        </EnumeratedItem>
        <EnumeratedItem CodedValue="Orientation: Year" nciodm:ExtCodeID="C100242">
          <nciodm:CDISCSynonym>Orientation: Year</nciodm:CDISCSynonym>
          <nciodm:CDISCDefinition>Alzheimer's Disease Assessment Scale-Cognitive CDISC Version - Orientation task for knowing the current year.</nciodm:CDISCDefinition>
          <nciodm:PreferredTerm>CDISC ADAS-Cog - Orientation: Year</nciodm:PreferredTerm>
        </EnumeratedItem>
        <EnumeratedItem CodedValue="Orientation: Day of Week" nciodm:ExtCodeID="C100243">
          <nciodm:CDISCSynonym>Orientation: Day of Week</nciodm:CDISCSynonym>
          <nciodm:CDISCDefinition>Alzheimer's Disease Assessment Scale-Cognitive CDISC Version - Orientation task for knowing the current day of the week.</nciodm:CDISCDefinition>
          <nciodm:PreferredTerm>CDISC ADAS-Cog - Orientation: Day of Week</nciodm:PreferredTerm>
        </EnumeratedItem>
        <EnumeratedItem CodedValue="Orientation: Season" nciodm:ExtCodeID="C100244">
          <nciodm:CDISCSynonym>Orientation: Season</nciodm:CDISCSynonym>
          <nciodm:CDISCDefinition>Alzheimer's Disease Assessment Scale-Cognitive CDISC Version - Orientation task for knowing the current season.</nciodm:CDISCDefinition>
          <nciodm:PreferredTerm>CDISC ADAS-Cog - Orientation: Season</nciodm:PreferredTerm>
        </EnumeratedItem>
        <EnumeratedItem CodedValue="Orientation: Place" nciodm:ExtCodeID="C100245">
          <nciodm:CDISCSynonym>Orientation: Place</nciodm:CDISCSynonym>
          <nciodm:CDISCDefinition>Alzheimer's Disease Assessment Scale-Cognitive CDISC Version - Orientation task for knowing the current place.</nciodm:CDISCDefinition>
          <nciodm:PreferredTerm>CDISC ADAS-Cog - Orientation: Place</nciodm:PreferredTerm>
        </EnumeratedItem>
        <EnumeratedItem CodedValue="Orientation: Time" nciodm:ExtCodeID="C100246">
          <nciodm:CDISCSynonym>Orientation: Time</nciodm:CDISCSynonym>
          <nciodm:CDISCDefinition>Alzheimer's Disease Assessment Scale-Cognitive CDISC Version - Orientation task for knowing the approximate current clock time.</nciodm:CDISCDefinition>
          <nciodm:PreferredTerm>CDISC ADAS-Cog - Orientation: Time</nciodm:PreferredTerm>
        </EnumeratedItem>
        <EnumeratedItem CodedValue="Word Recognition" nciodm:ExtCodeID="C100247">
          <nciodm:CDISCSynonym>Word Recognition</nciodm:CDISCSynonym>
          <nciodm:CDISCDefinition>Alzheimer's Disease Assessment Scale-Cognitive CDISC Version - Summary score for word recognition across trials 1-3.</nciodm:CDISCDefinition>
          <nciodm:PreferredTerm>CDISC ADAS-Cog - Word Recognition Summary Score</nciodm:PreferredTerm>
        </EnumeratedItem>
        <EnumeratedItem CodedValue="Word Recognition Trial 1" nciodm:ExtCodeID="C100248">
          <nciodm:CDISCSynonym>Word Recognition Trial 1</nciodm:CDISCSynonym>
          <nciodm:CDISCDefinition>Alzheimer's Disease Assessment Scale-Cognitive CDISC Version - Sub-score for word recognition trial 1.</nciodm:CDISCDefinition>
          <nciodm:PreferredTerm>CDISC ADAS-Cog - Word Recognition Trial 1 Summary Score</nciodm:PreferredTerm>
        </EnumeratedItem>
        <EnumeratedItem CodedValue="Word Recognition Trial 2" nciodm:ExtCodeID="C100249">
          <nciodm:CDISCSynonym>Word Recognition Trial 2</nciodm:CDISCSynonym>
          <nciodm:CDISCDefinition>Alzheimer's Disease Assessment Scale-Cognitive CDISC Version - Sub-score for word recognition trial 2.</nciodm:CDISCDefinition>
          <nciodm:PreferredTerm>CDISC ADAS-Cog - Word Recognition Trial 2 Summary Score</nciodm:PreferredTerm>
        </EnumeratedItem>
        <EnumeratedItem CodedValue="Word Recognition Trial 3" nciodm:ExtCodeID="C100250">
          <nciodm:CDISCSynonym>Word Recognition Trial 3</nciodm:CDISCSynonym>
          <nciodm:CDISCDefinition>Alzheimer's Disease Assessment Scale-Cognitive CDISC Version - Sub-score for word recognition trial 3.</nciodm:CDISCDefinition>
          <nciodm:PreferredTerm>CDISC ADAS-Cog - Word Recognition Trial 3 Summary Score</nciodm:PreferredTerm>
        </EnumeratedItem>
        <EnumeratedItem CodedValue="Word Recognition: Word [1]" nciodm:ExtCodeID="C100251">
          <nciodm:CDISCSynonym>Word Recognition: Word [1]</nciodm:CDISCSynonym>
          <nciodm:CDISCDefinition>Alzheimer's Disease Assessment Scale-Cognitive CDISC Version - Word recognition task for word 1 Trials 1, 2, 3.</nciodm:CDISCDefinition>
          <nciodm:PreferredTerm>CDISC ADAS-Cog - Word Recognition: Word 1</nciodm:PreferredTerm>
        </EnumeratedItem>
        <EnumeratedItem CodedValue="Word Recognition: Word [2]" nciodm:ExtCodeID="C100252">
          <nciodm:CDISCSynonym>Word Recognition: Word [2]</nciodm:CDISCSynonym>
          <nciodm:CDISCDefinition>Alzheimer's Disease Assessment Scale-Cognitive CDISC Version - Word recognition task for word 2 Trials 1, 2, 3.</nciodm:CDISCDefinition>
          <nciodm:PreferredTerm>CDISC ADAS-Cog - Word Recognition: Word 2</nciodm:PreferredTerm>
        </EnumeratedItem>
        <EnumeratedItem CodedValue="Word Recognition: Word [3]" nciodm:ExtCodeID="C100253">
          <nciodm:CDISCSynonym>Word Recognition: Word [3]</nciodm:CDISCSynonym>
          <nciodm:CDISCDefinition>Alzheimer's Disease Assessment Scale-Cognitive CDISC Version - Word recognition task for word 3 Trials 1, 2, 3.</nciodm:CDISCDefinition>
          <nciodm:PreferredTerm>CDISC ADAS-Cog - Word Recognition: Word 3</nciodm:PreferredTerm>
        </EnumeratedItem>
        <EnumeratedItem CodedValue="Word Recognition: Word [4]" nciodm:ExtCodeID="C100254">
          <nciodm:CDISCSynonym>Word Recognition: Word [4]</nciodm:CDISCSynonym>
          <nciodm:CDISCDefinition>Alzheimer's Disease Assessment Scale-Cognitive CDISC Version - Word recognition task for word 4 Trials 1, 2, 3.</nciodm:CDISCDefinition>
          <nciodm:PreferredTerm>CDISC ADAS-Cog - Word Recognition: Word 4</nciodm:PreferredTerm>
        </EnumeratedItem>
        <EnumeratedItem CodedValue="Word Recognition: Word [5]" nciodm:ExtCodeID="C100255">
          <nciodm:CDISCSynonym>Word Recognition: Word [5]</nciodm:CDISCSynonym>
          <nciodm:CDISCDefinition>Alzheimer's Disease Assessment Scale-Cognitive CDISC Version - Word recognition task for word 5 Trials 1, 2, 3.</nciodm:CDISCDefinition>
          <nciodm:PreferredTerm>CDISC ADAS-Cog - Word Recognition: Word 5</nciodm:PreferredTerm>
        </EnumeratedItem>
        <EnumeratedItem CodedValue="Word Recognition: Word [6]" nciodm:ExtCodeID="C100256">
          <nciodm:CDISCSynonym>Word Recognition: Word [6]</nciodm:CDISCSynonym>
          <nciodm:CDISCDefinition>Alzheimer's Disease Assessment Scale-Cognitive CDISC Version - Word recognition task for word 6 Trials 1, 2, 3.</nciodm:CDISCDefinition>
          <nciodm:PreferredTerm>CDISC ADAS-Cog - Word Recognition: Word 6</nciodm:PreferredTerm>
        </EnumeratedItem>
        <EnumeratedItem CodedValue="Word Recognition: Word [7]" nciodm:ExtCodeID="C100257">
          <nciodm:CDISCSynonym>Word Recognition: Word [7]</nciodm:CDISCSynonym>
          <nciodm:CDISCDefinition>Alzheimer's Disease Assessment Scale-Cognitive CDISC Version - Word recognition task for word 7 Trials 1, 2, 3.</nciodm:CDISCDefinition>
          <nciodm:PreferredTerm>CDISC ADAS-Cog - Word Recognition: Word 7</nciodm:PreferredTerm>
        </EnumeratedItem>
        <EnumeratedItem CodedValue="Word Recognition: Word [8]" nciodm:ExtCodeID="C100258">
          <nciodm:CDISCSynonym>Word Recognition: Word [8]</nciodm:CDISCSynonym>
          <nciodm:CDISCDefinition>Alzheimer's Disease Assessment Scale-Cognitive CDISC Version - Word recognition task for word 8 Trials 1, 2, 3.</nciodm:CDISCDefinition>
          <nciodm:PreferredTerm>CDISC ADAS-Cog - Word Recognition: Word 8</nciodm:PreferredTerm>
        </EnumeratedItem>
        <EnumeratedItem CodedValue="Word Recognition: Word [9]" nciodm:ExtCodeID="C100259">
          <nciodm:CDISCSynonym>Word Recognition: Word [9]</nciodm:CDISCSynonym>
          <nciodm:CDISCDefinition>Alzheimer's Disease Assessment Scale-Cognitive CDISC Version - Word recognition task for word 9 Trials 1, 2, 3.</nciodm:CDISCDefinition>
          <nciodm:PreferredTerm>CDISC ADAS-Cog - Word Recognition: Word 9</nciodm:PreferredTerm>
        </EnumeratedItem>
        <EnumeratedItem CodedValue="Word Recognition: Word [10]" nciodm:ExtCodeID="C100260">
          <nciodm:CDISCSynonym>Word Recognition: Word [10]</nciodm:CDISCSynonym>
          <nciodm:CDISCDefinition>Alzheimer's Disease Assessment Scale-Cognitive CDISC Version - Word recognition task for word 10 Trials 1, 2, 3.</nciodm:CDISCDefinition>
          <nciodm:PreferredTerm>CDISC ADAS-Cog - Word Recognition: Word 10</nciodm:PreferredTerm>
        </EnumeratedItem>
        <EnumeratedItem CodedValue="Word Recognition: Word [11]" nciodm:ExtCodeID="C100261">
          <nciodm:CDISCSynonym>Word Recognition: Word [11]</nciodm:CDISCSynonym>
          <nciodm:CDISCDefinition>Alzheimer's Disease Assessment Scale-Cognitive CDISC Version - Word recognition task for word 11 Trials 1, 2, 3.</nciodm:CDISCDefinition>
          <nciodm:PreferredTerm>CDISC ADAS-Cog - Word Recognition: Word 11</nciodm:PreferredTerm>
        </EnumeratedItem>
        <EnumeratedItem CodedValue="Word Recognition: Word [12]" nciodm:ExtCodeID="C100262">
          <nciodm:CDISCSynonym>Word Recognition: Word [12]</nciodm:CDISCSynonym>
          <nciodm:CDISCDefinition>Alzheimer's Disease Assessment Scale-Cognitive CDISC Version - Word recognition task for word 12 Trials 1, 2, 3.</nciodm:CDISCDefinition>
          <nciodm:PreferredTerm>CDISC ADAS-Cog - Word Recognition: Word 12</nciodm:PreferredTerm>
        </EnumeratedItem>
        <EnumeratedItem CodedValue="Word Recognition: Word [13]" nciodm:ExtCodeID="C100263">
          <nciodm:CDISCSynonym>Word Recognition: Word [13]</nciodm:CDISCSynonym>
          <nciodm:CDISCDefinition>Alzheimer's Disease Assessment Scale-Cognitive CDISC Version - Word recognition task for word 13 Trials 1, 2, 3.</nciodm:CDISCDefinition>
          <nciodm:PreferredTerm>CDISC ADAS-Cog - Word Recognition: Word 13</nciodm:PreferredTerm>
        </EnumeratedItem>
        <EnumeratedItem CodedValue="Word Recognition: Word [14]" nciodm:ExtCodeID="C100264">
          <nciodm:CDISCSynonym>Word Recognition: Word [14]</nciodm:CDISCSynonym>
          <nciodm:CDISCDefinition>Alzheimer's Disease Assessment Scale-Cognitive CDISC Version - Word recognition task for word 14 Trials 1, 2, 3.</nciodm:CDISCDefinition>
          <nciodm:PreferredTerm>CDISC ADAS-Cog - Word Recognition: Word 14</nciodm:PreferredTerm>
        </EnumeratedItem>
        <EnumeratedItem CodedValue="Word Recognition: Word [15]" nciodm:ExtCodeID="C100265">
          <nciodm:CDISCSynonym>Word Recognition: Word [15]</nciodm:CDISCSynonym>
          <nciodm:CDISCDefinition>Alzheimer's Disease Assessment Scale-Cognitive CDISC Version - Word recognition task for word 15 Trials 1, 2, 3.</nciodm:CDISCDefinition>
          <nciodm:PreferredTerm>CDISC ADAS-Cog - Word Recognition: Word 15</nciodm:PreferredTerm>
        </EnumeratedItem>
        <EnumeratedItem CodedValue="Word Recognition: Word [16]" nciodm:ExtCodeID="C100266">
          <nciodm:CDISCSynonym>Word Recognition: Word [16]</nciodm:CDISCSynonym>
          <nciodm:CDISCDefinition>Alzheimer's Disease Assessment Scale-Cognitive CDISC Version - Word recognition task for word 16 Trials 1, 2, 3.</nciodm:CDISCDefinition>
          <nciodm:PreferredTerm>CDISC ADAS-Cog - Word Recognition: Word 16</nciodm:PreferredTerm>
        </EnumeratedItem>
        <EnumeratedItem CodedValue="Word Recognition: Word [17]" nciodm:ExtCodeID="C100267">
          <nciodm:CDISCSynonym>Word Recognition: Word [17]</nciodm:CDISCSynonym>
          <nciodm:CDISCDefinition>Alzheimer's Disease Assessment Scale-Cognitive CDISC Version - Word recognition task for word 17 Trials 1, 2, 3.</nciodm:CDISCDefinition>
          <nciodm:PreferredTerm>CDISC ADAS-Cog - Word Recognition: Word 17</nciodm:PreferredTerm>
        </EnumeratedItem>
        <EnumeratedItem CodedValue="Word Recognition: Word [18]" nciodm:ExtCodeID="C100268">
          <nciodm:CDISCSynonym>Word Recognition: Word [18]</nciodm:CDISCSynonym>
          <nciodm:CDISCDefinition>Alzheimer's Disease Assessment Scale-Cognitive CDISC Version - Word recognition task for word 18 Trials 1, 2, 3.</nciodm:CDISCDefinition>
          <nciodm:PreferredTerm>CDISC ADAS-Cog - Word Recognition: Word 18</nciodm:PreferredTerm>
        </EnumeratedItem>
        <EnumeratedItem CodedValue="Word Recognition: Word [19]" nciodm:ExtCodeID="C100269">
          <nciodm:CDISCSynonym>Word Recognition: Word [19]</nciodm:CDISCSynonym>
          <nciodm:CDISCDefinition>Alzheimer's Disease Assessment Scale-Cognitive CDISC Version - Word recognition task for word 19 Trials 1, 2, 3.</nciodm:CDISCDefinition>
          <nciodm:PreferredTerm>CDISC ADAS-Cog - Word Recognition: Word 19</nciodm:PreferredTerm>
        </EnumeratedItem>
        <EnumeratedItem CodedValue="Word Recognition: Word [20]" nciodm:ExtCodeID="C100270">
          <nciodm:CDISCSynonym>Word Recognition: Word [20]</nciodm:CDISCSynonym>
          <nciodm:CDISCDefinition>Alzheimer's Disease Assessment Scale-Cognitive CDISC Version - Word recognition task for word 20 Trials 1, 2, 3.</nciodm:CDISCDefinition>
          <nciodm:PreferredTerm>CDISC ADAS-Cog - Word Recognition: Word 20</nciodm:PreferredTerm>
        </EnumeratedItem>
        <EnumeratedItem CodedValue="Word Recognition: Word [21]" nciodm:ExtCodeID="C100271">
          <nciodm:CDISCSynonym>Word Recognition: Word [21]</nciodm:CDISCSynonym>
          <nciodm:CDISCDefinition>Alzheimer's Disease Assessment Scale-Cognitive CDISC Version - Word recognition task for word 21 Trials 1, 2, 3.</nciodm:CDISCDefinition>
          <nciodm:PreferredTerm>CDISC ADAS-Cog - Word Recognition: Word 21</nciodm:PreferredTerm>
        </EnumeratedItem>
        <EnumeratedItem CodedValue="Word Recognition: Word [22]" nciodm:ExtCodeID="C100272">
          <nciodm:CDISCSynonym>Word Recognition: Word [22]</nciodm:CDISCSynonym>
          <nciodm:CDISCDefinition>Alzheimer's Disease Assessment Scale-Cognitive CDISC Version - Word recognition task for word 22 Trials 1, 2, 3.</nciodm:CDISCDefinition>
          <nciodm:PreferredTerm>CDISC ADAS-Cog - Word Recognition: Word 22</nciodm:PreferredTerm>
        </EnumeratedItem>
        <EnumeratedItem CodedValue="Word Recognition: Word [23]" nciodm:ExtCodeID="C100273">
          <nciodm:CDISCSynonym>Word Recognition: Word [23]</nciodm:CDISCSynonym>
          <nciodm:CDISCDefinition>Alzheimer's Disease Assessment Scale-Cognitive CDISC Version - Word recognition task for word 23 Trials 1, 2, 3.</nciodm:CDISCDefinition>
          <nciodm:PreferredTerm>CDISC ADAS-Cog - Word Recognition: Word 23</nciodm:PreferredTerm>
        </EnumeratedItem>
        <EnumeratedItem CodedValue="Word Recognition: Word [24]" nciodm:ExtCodeID="C100274">
          <nciodm:CDISCSynonym>Word Recognition: Word [24]</nciodm:CDISCSynonym>
          <nciodm:CDISCDefinition>Alzheimer's Disease Assessment Scale-Cognitive CDISC Version - Word recognition task for word 24 Trials 1, 2, 3.</nciodm:CDISCDefinition>
          <nciodm:PreferredTerm>CDISC ADAS-Cog - Word Recognition: Word 24</nciodm:PreferredTerm>
        </EnumeratedItem>
        <EnumeratedItem CodedValue="Remembering Test Instructions" nciodm:ExtCodeID="C100275">
          <nciodm:CDISCSynonym>Remembering Test Instructions</nciodm:CDISCSynonym>
          <nciodm:CDISCDefinition>Alzheimer's Disease Assessment Scale-Cognitive CDISC Version - Remembering test instructions.</nciodm:CDISCDefinition>
          <nciodm:PreferredTerm>CDISC ADAS-Cog - Remembering Test Instructions</nciodm:PreferredTerm>
        </EnumeratedItem>
        <EnumeratedItem CodedValue="Spoken Language Ability" nciodm:ExtCodeID="C100276">
          <nciodm:CDISCSynonym>Spoken Language Ability</nciodm:CDISCSynonym>
          <nciodm:CDISCDefinition>Alzheimer's Disease Assessment Scale-Cognitive CDISC Version - Global rating of the quality of speech, or difficulty in making oneself understood.</nciodm:CDISCDefinition>
          <nciodm:PreferredTerm>CDISC ADAS-Cog - Spoken Language Ability</nciodm:PreferredTerm>
        </EnumeratedItem>
        <EnumeratedItem CodedValue="Word Finding Difficulty in Spont Speech" nciodm:ExtCodeID="C100277">
          <nciodm:CDISCSynonym>Word Finding Difficulty in Spont Speech</nciodm:CDISCSynonym>
          <nciodm:CDISCDefinition>Alzheimer's Disease Assessment Scale-Cognitive CDISC Version - Difficulty finding the desired word in spontaneous speech.</nciodm:CDISCDefinition>
          <nciodm:PreferredTerm>CDISC ADAS-Cog - Word Difficulty in Spontaneous Speech</nciodm:PreferredTerm>
        </EnumeratedItem>
        <EnumeratedItem CodedValue="Comprehension" nciodm:ExtCodeID="C100278">
          <nciodm:CDISCSynonym>Comprehension</nciodm:CDISCSynonym>
          <nciodm:CDISCDefinition>Alzheimer's Disease Assessment Scale-Cognitive CDISC Version - Ability to comprehend speech.</nciodm:CDISCDefinition>
          <nciodm:PreferredTerm>CDISC ADAS-Cog - Comprehension</nciodm:PreferredTerm>
        </EnumeratedItem>
        <EnumeratedItem CodedValue="Concentration/Distractibility" nciodm:ExtCodeID="C100279">
          <nciodm:CDISCSynonym>Concentration/Distractibility</nciodm:CDISCSynonym>
          <nciodm:CDISCDefinition>Alzheimer's Disease Assessment Scale-Cognitive CDISC Version - Ability to concentrate or easily be distracted.</nciodm:CDISCDefinition>
          <nciodm:PreferredTerm>CDISC ADAS-Cog - Concentration/Distractibility</nciodm:PreferredTerm>
        </EnumeratedItem>
        <EnumeratedItem CodedValue="Number Cancellation" nciodm:ExtCodeID="C100280">
          <nciodm:CDISCSynonym>Number Cancellation</nciodm:CDISCSynonym>
          <nciodm:CDISCDefinition>Alzheimer's Disease Assessment Scale-Cognitive CDISC Version - Summary score for the number cancellation tasks.</nciodm:CDISCDefinition>
          <nciodm:PreferredTerm>CDISC ADAS-Cog - Number Cancellation Summary Score</nciodm:PreferredTerm>
        </EnumeratedItem>
        <EnumeratedItem CodedValue="Number Cancellation: Correct" nciodm:ExtCodeID="C100281">
          <nciodm:CDISCSynonym>Number Cancellation: Correct</nciodm:CDISCSynonym>
          <nciodm:CDISCDefinition>Alzheimer's Disease Assessment Scale-Cognitive CDISC Version - Number of targets hit during the number cancellation task.</nciodm:CDISCDefinition>
          <nciodm:PreferredTerm>CDISC ADAS-Cog - Number Cancellation: Correct</nciodm:PreferredTerm>
        </EnumeratedItem>
        <EnumeratedItem CodedValue="Number Cancellation: Errors" nciodm:ExtCodeID="C100282">
          <nciodm:CDISCSynonym>Number Cancellation: Errors</nciodm:CDISCSynonym>
          <nciodm:CDISCDefinition>Alzheimer's Disease Assessment Scale-Cognitive CDISC Version - Number of errors during the number cancellation task.</nciodm:CDISCDefinition>
          <nciodm:PreferredTerm>CDISC ADAS-Cog - Number Cancellation: Errors</nciodm:PreferredTerm>
        </EnumeratedItem>
        <EnumeratedItem CodedValue="Number Cancellation: Remind" nciodm:ExtCodeID="C100283">
          <nciodm:CDISCSynonym>Number Cancellation: Remind</nciodm:CDISCSynonym>
          <nciodm:CDISCDefinition>Alzheimer's Disease Assessment Scale-Cognitive CDISC Version - Number of times reminded for the number cancellation task.</nciodm:CDISCDefinition>
          <nciodm:PreferredTerm>CDISC ADAS-Cog - Number Cancellation: Remind</nciodm:PreferredTerm>
        </EnumeratedItem>
        <EnumeratedItem CodedValue="Executive Function Maze" nciodm:ExtCodeID="C100284">
          <nciodm:CDISCSynonym>Executive Function Maze</nciodm:CDISCSynonym>
          <nciodm:CDISCDefinition>Alzheimer's Disease Assessment Scale-Cognitive CDISC Version - Summary score for the executive function maze tasks.</nciodm:CDISCDefinition>
          <nciodm:PreferredTerm>CDISC ADAS-Cog - Executive Function Maze Summary Score</nciodm:PreferredTerm>
        </EnumeratedItem>
        <EnumeratedItem CodedValue="Executive Function Maze: Errors" nciodm:ExtCodeID="C100285">
          <nciodm:CDISCSynonym>Executive Function Maze: Errors</nciodm:CDISCSynonym>
          <nciodm:CDISCDefinition>Alzheimer's Disease Assessment Scale-Cognitive CDISC Version - Number of errors during the executive function maze task.</nciodm:CDISCDefinition>
          <nciodm:PreferredTerm>CDISC ADAS-Cog - Executive Function Maze: Errors</nciodm:PreferredTerm>
        </EnumeratedItem>
        <EnumeratedItem CodedValue="Executive Function Maze: Time" nciodm:ExtCodeID="C100286">
          <nciodm:CDISCSynonym>Executive Function Maze: Time</nciodm:CDISCSynonym>
          <nciodm:CDISCDefinition>Alzheimer's Disease Assessment Scale-Cognitive CDISC Version - The time in seconds stored in ISO 8601 time for the executive function maze task.</nciodm:CDISCDefinition>
          <nciodm:PreferredTerm>CDISC ADAS-Cog - Executive Function Maze: Time</nciodm:PreferredTerm>
        </EnumeratedItem>
        <nciodm:CDISCSubmissionValue>ADAS-Cog CDISC Version TEST</nciodm:CDISCSubmissionValue>
        <nciodm:CDISCSynonym>Alzheimer's Disease Assessment Scale - Cognitive CDISC Version Test Name</nciodm:CDISCSynonym>
        <nciodm:PreferredTerm>CDISC Questionnaire ADAS-Cog CDISC Version Test Name Terminology</nciodm:PreferredTerm>
      </CodeList>
      <CodeList OID="CL.C100133.BPRS-A TEST" Name="Brief Psychiatric Rating Scale-A Test Name" DataType="text" nciodm:ExtCodeID="C100133" nciodm:CodeListExtensible="No">
        <Description>
          <TranslatedText xml:lang="en">The Brief Psychiatric Rating Scale-A test name.</TranslatedText>
        </Description>
        <EnumeratedItem CodedValue="BPR01-Somatic Concern" nciodm:ExtCodeID="C100372">
          <nciodm:CDISCSynonym>BPR01-Somatic Concern</nciodm:CDISCSynonym>
          <nciodm:CDISCDefinition>Brief Psychiatric Rating Scale-A - Somatic Concern.</nciodm:CDISCDefinition>
          <nciodm:PreferredTerm>BPRS-A - Somatic Concern</nciodm:PreferredTerm>
        </EnumeratedItem>
        <EnumeratedItem CodedValue="BPR01-Anxiety" nciodm:ExtCodeID="C100373">
          <nciodm:CDISCSynonym>BPR01-Anxiety</nciodm:CDISCSynonym>
          <nciodm:CDISCDefinition>Brief Psychiatric Rating Scale-A - Anxiety.</nciodm:CDISCDefinition>
          <nciodm:PreferredTerm>BPRS-A - Anxiety</nciodm:PreferredTerm>
        </EnumeratedItem>
        <EnumeratedItem CodedValue="BPR01-Emotional Withdrawal" nciodm:ExtCodeID="C100374">
          <nciodm:CDISCSynonym>BPR01-Emotional Withdrawal</nciodm:CDISCSynonym>
          <nciodm:CDISCDefinition>Brief Psychiatric Rating Scale-A - Emotional Withdrawal.</nciodm:CDISCDefinition>
          <nciodm:PreferredTerm>BPRS-A - Emotional Withdrawal</nciodm:PreferredTerm>
        </EnumeratedItem>
        <EnumeratedItem CodedValue="BPR01-Conceptual Disorganization" nciodm:ExtCodeID="C100375">
          <nciodm:CDISCSynonym>BPR01-Conceptual Disorganization</nciodm:CDISCSynonym>
          <nciodm:CDISCDefinition>Brief Psychiatric Rating Scale-A - Conceptual Disorganization.</nciodm:CDISCDefinition>
          <nciodm:PreferredTerm>BPRS-A - Conceptual Disorganization</nciodm:PreferredTerm>
        </EnumeratedItem>
        <EnumeratedItem CodedValue="BPR01-Guilt Feelings" nciodm:ExtCodeID="C100376">
          <nciodm:CDISCSynonym>BPR01-Guilt Feelings</nciodm:CDISCSynonym>
          <nciodm:CDISCDefinition>Brief Psychiatric Rating Scale-A - Guilt Feelings.</nciodm:CDISCDefinition>
          <nciodm:PreferredTerm>BPRS-A - Guilt Feelings</nciodm:PreferredTerm>
        </EnumeratedItem>
        <EnumeratedItem CodedValue="BPR01-Tension" nciodm:ExtCodeID="C100377">
          <nciodm:CDISCSynonym>BPR01-Tension</nciodm:CDISCSynonym>
          <nciodm:CDISCDefinition>Brief Psychiatric Rating Scale-A - Tension.</nciodm:CDISCDefinition>
          <nciodm:PreferredTerm>BPRS-A - Tension</nciodm:PreferredTerm>
        </EnumeratedItem>
        <EnumeratedItem CodedValue="BPR01-Mannerisms and Posturing" nciodm:ExtCodeID="C100378">
          <nciodm:CDISCSynonym>BPR01-Mannerisms and Posturing</nciodm:CDISCSynonym>
          <nciodm:CDISCDefinition>Brief Psychiatric Rating Scale-A - Mannerisms and Posturing.</nciodm:CDISCDefinition>
          <nciodm:PreferredTerm>BPRS-A - Mannerisms and Posturing</nciodm:PreferredTerm>
        </EnumeratedItem>
        <EnumeratedItem CodedValue="BPR01-Grandiosity" nciodm:ExtCodeID="C100379">
          <nciodm:CDISCSynonym>BPR01-Grandiosity</nciodm:CDISCSynonym>
          <nciodm:CDISCDefinition>Brief Psychiatric Rating Scale-A - Grandiosity.</nciodm:CDISCDefinition>
          <nciodm:PreferredTerm>BPRS-A - Grandiosity</nciodm:PreferredTerm>
        </EnumeratedItem>
        <EnumeratedItem CodedValue="BPR01-Depressive Mood" nciodm:ExtCodeID="C100380">
          <nciodm:CDISCSynonym>BPR01-Depressive Mood</nciodm:CDISCSynonym>
          <nciodm:CDISCDefinition>Brief Psychiatric Rating Scale-A - Depressive Mood.</nciodm:CDISCDefinition>
          <nciodm:PreferredTerm>BPRS-A - Depressive Mood</nciodm:PreferredTerm>
        </EnumeratedItem>
        <EnumeratedItem CodedValue="BPR01-Hostility" nciodm:ExtCodeID="C100381">
          <nciodm:CDISCSynonym>BPR01-Hostility</nciodm:CDISCSynonym>
          <nciodm:CDISCDefinition>Brief Psychiatric Rating Scale-A - Hostility.</nciodm:CDISCDefinition>
          <nciodm:PreferredTerm>BPRS-A - Hostility</nciodm:PreferredTerm>
        </EnumeratedItem>
        <EnumeratedItem CodedValue="BPR01-Suspiciousness" nciodm:ExtCodeID="C100382">
          <nciodm:CDISCSynonym>BPR01-Suspiciousness</nciodm:CDISCSynonym>
          <nciodm:CDISCDefinition>Brief Psychiatric Rating Scale-A - Suspiciousness.</nciodm:CDISCDefinition>
          <nciodm:PreferredTerm>BPRS-A - Suspiciousness</nciodm:PreferredTerm>
        </EnumeratedItem>
        <EnumeratedItem CodedValue="BPR01-Hallucinatory Behavior" nciodm:ExtCodeID="C100383">
          <nciodm:CDISCSynonym>BPR01-Hallucinatory Behavior</nciodm:CDISCSynonym>
          <nciodm:CDISCDefinition>Brief Psychiatric Rating Scale-A - Hallucinatory Behavior.</nciodm:CDISCDefinition>
          <nciodm:PreferredTerm>BPRS-A - Hallucinatory Behavior</nciodm:PreferredTerm>
        </EnumeratedItem>
        <EnumeratedItem CodedValue="BPR01-Motor Retardation" nciodm:ExtCodeID="C100384">
          <nciodm:CDISCSynonym>BPR01-Motor Retardation</nciodm:CDISCSynonym>
          <nciodm:CDISCDefinition>Brief Psychiatric Rating Scale-A - Motor Retardation.</nciodm:CDISCDefinition>
          <nciodm:PreferredTerm>BPRS-A - Motor Retardation</nciodm:PreferredTerm>
        </EnumeratedItem>
        <EnumeratedItem CodedValue="BPR01-Uncooperativeness" nciodm:ExtCodeID="C100385">
          <nciodm:CDISCSynonym>BPR01-Uncooperativeness</nciodm:CDISCSynonym>
          <nciodm:CDISCDefinition>Brief Psychiatric Rating Scale-A - Uncooperativeness.</nciodm:CDISCDefinition>
          <nciodm:PreferredTerm>BPRS-A - Uncooperativeness</nciodm:PreferredTerm>
        </EnumeratedItem>
        <EnumeratedItem CodedValue="BPR01-Unusual Thought Content" nciodm:ExtCodeID="C100386">
          <nciodm:CDISCSynonym>BPR01-Unusual Thought Content</nciodm:CDISCSynonym>
          <nciodm:CDISCDefinition>Brief Psychiatric Rating Scale-A - Unusual Thought Content.</nciodm:CDISCDefinition>
          <nciodm:PreferredTerm>BPRS-A - Unusual Thought Content</nciodm:PreferredTerm>
        </EnumeratedItem>
        <EnumeratedItem CodedValue="BPR01-Blunted Affect" nciodm:ExtCodeID="C100387">
          <nciodm:CDISCSynonym>BPR01-Blunted Affect</nciodm:CDISCSynonym>
          <nciodm:CDISCDefinition>Brief Psychiatric Rating Scale-A - Blunted Affect.</nciodm:CDISCDefinition>
          <nciodm:PreferredTerm>BPRS-A - Blunted Affect</nciodm:PreferredTerm>
        </EnumeratedItem>
        <EnumeratedItem CodedValue="BPR01-Excitement" nciodm:ExtCodeID="C100388">
          <nciodm:CDISCSynonym>BPR01-Excitement</nciodm:CDISCSynonym>
          <nciodm:CDISCDefinition>Brief Psychiatric Rating Scale-A - Excitement.</nciodm:CDISCDefinition>
          <nciodm:PreferredTerm>BPRS-A - Excitement</nciodm:PreferredTerm>
        </EnumeratedItem>
        <EnumeratedItem CodedValue="BPR01-Disorientation" nciodm:ExtCodeID="C100389">
          <nciodm:CDISCSynonym>BPR01-Disorientation</nciodm:CDISCSynonym>
          <nciodm:CDISCDefinition>Brief Psychiatric Rating Scale-A - Disorientation.</nciodm:CDISCDefinition>
          <nciodm:PreferredTerm>BPRS-A - Disorientation</nciodm:PreferredTerm>
        </EnumeratedItem>
        <nciodm:CDISCSubmissionValue>BPRS-A TEST</nciodm:CDISCSubmissionValue>
        <nciodm:CDISCSynonym>Brief Psychiatric Rating Scale-A Test Name</nciodm:CDISCSynonym>
        <nciodm:PreferredTerm>CDISC Questionnaire BPRS-A Test Name Terminology</nciodm:PreferredTerm>
      </CodeList>
      <CodeList OID="CL.C100134.BPRS-A TESTCD" Name="Brief Psychiatric Rating Scale-A Test Code" DataType="text" nciodm:ExtCodeID="C100134" nciodm:CodeListExtensible="No">
        <Description>
          <TranslatedText xml:lang="en">The Brief Psychiatric Rating Scale-A test code.</TranslatedText>
        </Description>
        <EnumeratedItem CodedValue="BPR0101" nciodm:ExtCodeID="C100372">
          <nciodm:CDISCSynonym>BPR01-Somatic Concern</nciodm:CDISCSynonym>
          <nciodm:CDISCDefinition>Brief Psychiatric Rating Scale-A - Somatic Concern.</nciodm:CDISCDefinition>
          <nciodm:PreferredTerm>BPRS-A - Somatic Concern</nciodm:PreferredTerm>
        </EnumeratedItem>
        <EnumeratedItem CodedValue="BPR0102" nciodm:ExtCodeID="C100373">
          <nciodm:CDISCSynonym>BPR01-Anxiety</nciodm:CDISCSynonym>
          <nciodm:CDISCDefinition>Brief Psychiatric Rating Scale-A - Anxiety.</nciodm:CDISCDefinition>
          <nciodm:PreferredTerm>BPRS-A - Anxiety</nciodm:PreferredTerm>
        </EnumeratedItem>
        <EnumeratedItem CodedValue="BPR0103" nciodm:ExtCodeID="C100374">
          <nciodm:CDISCSynonym>BPR01-Emotional Withdrawal</nciodm:CDISCSynonym>
          <nciodm:CDISCDefinition>Brief Psychiatric Rating Scale-A - Emotional Withdrawal.</nciodm:CDISCDefinition>
          <nciodm:PreferredTerm>BPRS-A - Emotional Withdrawal</nciodm:PreferredTerm>
        </EnumeratedItem>
        <EnumeratedItem CodedValue="BPR0104" nciodm:ExtCodeID="C100375">
          <nciodm:CDISCSynonym>BPR01-Conceptual Disorganization</nciodm:CDISCSynonym>
          <nciodm:CDISCDefinition>Brief Psychiatric Rating Scale-A - Conceptual Disorganization.</nciodm:CDISCDefinition>
          <nciodm:PreferredTerm>BPRS-A - Conceptual Disorganization</nciodm:PreferredTerm>
        </EnumeratedItem>
        <EnumeratedItem CodedValue="BPR0105" nciodm:ExtCodeID="C100376">
          <nciodm:CDISCSynonym>BPR01-Guilt Feelings</nciodm:CDISCSynonym>
          <nciodm:CDISCDefinition>Brief Psychiatric Rating Scale-A - Guilt Feelings.</nciodm:CDISCDefinition>
          <nciodm:PreferredTerm>BPRS-A - Guilt Feelings</nciodm:PreferredTerm>
        </EnumeratedItem>
        <EnumeratedItem CodedValue="BPR0106" nciodm:ExtCodeID="C100377">
          <nciodm:CDISCSynonym>BPR01-Tension</nciodm:CDISCSynonym>
          <nciodm:CDISCDefinition>Brief Psychiatric Rating Scale-A - Tension.</nciodm:CDISCDefinition>
          <nciodm:PreferredTerm>BPRS-A - Tension</nciodm:PreferredTerm>
        </EnumeratedItem>
        <EnumeratedItem CodedValue="BPR0107" nciodm:ExtCodeID="C100378">
          <nciodm:CDISCSynonym>BPR01-Mannerisms and Posturing</nciodm:CDISCSynonym>
          <nciodm:CDISCDefinition>Brief Psychiatric Rating Scale-A - Mannerisms and Posturing.</nciodm:CDISCDefinition>
          <nciodm:PreferredTerm>BPRS-A - Mannerisms and Posturing</nciodm:PreferredTerm>
        </EnumeratedItem>
        <EnumeratedItem CodedValue="BPR0108" nciodm:ExtCodeID="C100379">
          <nciodm:CDISCSynonym>BPR01-Grandiosity</nciodm:CDISCSynonym>
          <nciodm:CDISCDefinition>Brief Psychiatric Rating Scale-A - Grandiosity.</nciodm:CDISCDefinition>
          <nciodm:PreferredTerm>BPRS-A - Grandiosity</nciodm:PreferredTerm>
        </EnumeratedItem>
        <EnumeratedItem CodedValue="BPR0109" nciodm:ExtCodeID="C100380">
          <nciodm:CDISCSynonym>BPR01-Depressive Mood</nciodm:CDISCSynonym>
          <nciodm:CDISCDefinition>Brief Psychiatric Rating Scale-A - Depressive Mood.</nciodm:CDISCDefinition>
          <nciodm:PreferredTerm>BPRS-A - Depressive Mood</nciodm:PreferredTerm>
        </EnumeratedItem>
        <EnumeratedItem CodedValue="BPR0110" nciodm:ExtCodeID="C100381">
          <nciodm:CDISCSynonym>BPR01-Hostility</nciodm:CDISCSynonym>
          <nciodm:CDISCDefinition>Brief Psychiatric Rating Scale-A - Hostility.</nciodm:CDISCDefinition>
          <nciodm:PreferredTerm>BPRS-A - Hostility</nciodm:PreferredTerm>
        </EnumeratedItem>
        <EnumeratedItem CodedValue="BPR0111" nciodm:ExtCodeID="C100382">
          <nciodm:CDISCSynonym>BPR01-Suspiciousness</nciodm:CDISCSynonym>
          <nciodm:CDISCDefinition>Brief Psychiatric Rating Scale-A - Suspiciousness.</nciodm:CDISCDefinition>
          <nciodm:PreferredTerm>BPRS-A - Suspiciousness</nciodm:PreferredTerm>
        </EnumeratedItem>
        <EnumeratedItem CodedValue="BPR0112" nciodm:ExtCodeID="C100383">
          <nciodm:CDISCSynonym>BPR01-Hallucinatory Behavior</nciodm:CDISCSynonym>
          <nciodm:CDISCDefinition>Brief Psychiatric Rating Scale-A - Hallucinatory Behavior.</nciodm:CDISCDefinition>
          <nciodm:PreferredTerm>BPRS-A - Hallucinatory Behavior</nciodm:PreferredTerm>
        </EnumeratedItem>
        <EnumeratedItem CodedValue="BPR0113" nciodm:ExtCodeID="C100384">
          <nciodm:CDISCSynonym>BPR01-Motor Retardation</nciodm:CDISCSynonym>
          <nciodm:CDISCDefinition>Brief Psychiatric Rating Scale-A - Motor Retardation.</nciodm:CDISCDefinition>
          <nciodm:PreferredTerm>BPRS-A - Motor Retardation</nciodm:PreferredTerm>
        </EnumeratedItem>
        <EnumeratedItem CodedValue="BPR0114" nciodm:ExtCodeID="C100385">
          <nciodm:CDISCSynonym>BPR01-Uncooperativeness</nciodm:CDISCSynonym>
          <nciodm:CDISCDefinition>Brief Psychiatric Rating Scale-A - Uncooperativeness.</nciodm:CDISCDefinition>
          <nciodm:PreferredTerm>BPRS-A - Uncooperativeness</nciodm:PreferredTerm>
        </EnumeratedItem>
        <EnumeratedItem CodedValue="BPR0115" nciodm:ExtCodeID="C100386">
          <nciodm:CDISCSynonym>BPR01-Unusual Thought Content</nciodm:CDISCSynonym>
          <nciodm:CDISCDefinition>Brief Psychiatric Rating Scale-A - Unusual Thought Content.</nciodm:CDISCDefinition>
          <nciodm:PreferredTerm>BPRS-A - Unusual Thought Content</nciodm:PreferredTerm>
        </EnumeratedItem>
        <EnumeratedItem CodedValue="BPR0116" nciodm:ExtCodeID="C100387">
          <nciodm:CDISCSynonym>BPR01-Blunted Affect</nciodm:CDISCSynonym>
          <nciodm:CDISCDefinition>Brief Psychiatric Rating Scale-A - Blunted Affect.</nciodm:CDISCDefinition>
          <nciodm:PreferredTerm>BPRS-A - Blunted Affect</nciodm:PreferredTerm>
        </EnumeratedItem>
        <EnumeratedItem CodedValue="BPR0117" nciodm:ExtCodeID="C100388">
          <nciodm:CDISCSynonym>BPR01-Excitement</nciodm:CDISCSynonym>
          <nciodm:CDISCDefinition>Brief Psychiatric Rating Scale-A - Excitement.</nciodm:CDISCDefinition>
          <nciodm:PreferredTerm>BPRS-A - Excitement</nciodm:PreferredTerm>
        </EnumeratedItem>
        <EnumeratedItem CodedValue="BPR0118" nciodm:ExtCodeID="C100389">
          <nciodm:CDISCSynonym>BPR01-Disorientation</nciodm:CDISCSynonym>
          <nciodm:CDISCDefinition>Brief Psychiatric Rating Scale-A - Disorientation.</nciodm:CDISCDefinition>
          <nciodm:PreferredTerm>BPRS-A - Disorientation</nciodm:PreferredTerm>
        </EnumeratedItem>
        <nciodm:CDISCSubmissionValue>BPRS-A TESTCD</nciodm:CDISCSubmissionValue>
        <nciodm:CDISCSynonym>Brief Psychiatric Rating Scale-A Test Code</nciodm:CDISCSynonym>
        <nciodm:PreferredTerm>CDISC Questionnaire BPRS-A Test Code Terminology</nciodm:PreferredTerm>
      </CodeList>
      <CodeList OID="CL.C100135.EQ-5D-3L TEST" Name="EuroQOLFive Dimension Three Level Scale Test Name" DataType="text" nciodm:ExtCodeID="C100135" nciodm:CodeListExtensible="No">
        <Description>
          <TranslatedText xml:lang="en">The EuroQOL (European Quality of Life) Five Dimension three level scale test name.</TranslatedText>
        </Description>
        <EnumeratedItem CodedValue="EQ-5D-3L-Question 1" nciodm:ExtCodeID="C100392">
          <nciodm:CDISCSynonym>EQ-5D-3L-Question 1</nciodm:CDISCSynonym>
          <nciodm:CDISCDefinition>The EuroQol (European Quality of Life) Five Dimension Three Level Scale (EQ-5D-3L) (copyright 1990 EuroQol Group EQ-5D. All Rights Reserved). Question 1.</nciodm:CDISCDefinition>
          <nciodm:PreferredTerm>EQ-5D-3L - Question 1</nciodm:PreferredTerm>
        </EnumeratedItem>
        <EnumeratedItem CodedValue="EQ-5D-3L-Question 2" nciodm:ExtCodeID="C100393">
          <nciodm:CDISCSynonym>EQ-5D-3L-Question 2</nciodm:CDISCSynonym>
          <nciodm:CDISCDefinition>The EuroQol (European Quality of Life) Five Dimension Three Level Scale (EQ-5D-3L) (copyright 1990 EuroQol Group EQ-5D. All Rights Reserved). Question 2.</nciodm:CDISCDefinition>
          <nciodm:PreferredTerm>EQ-5D-3L - Question 2</nciodm:PreferredTerm>
        </EnumeratedItem>
        <EnumeratedItem CodedValue="EQ-5D-3L-Question 3" nciodm:ExtCodeID="C100394">
          <nciodm:CDISCSynonym>EQ-5D-3L-Question 3</nciodm:CDISCSynonym>
          <nciodm:CDISCDefinition>The EuroQol (European Quality of Life) Five Dimension Three Level Scale (EQ-5D-3L) (copyright 1990 EuroQol Group EQ-5D. All Rights Reserved). Question 3.</nciodm:CDISCDefinition>
          <nciodm:PreferredTerm>EQ-5D-3L - Question 3</nciodm:PreferredTerm>
        </EnumeratedItem>
        <EnumeratedItem CodedValue="EQ-5D-3L-Question 4" nciodm:ExtCodeID="C100395">
          <nciodm:CDISCSynonym>EQ-5D-3L-Question 4</nciodm:CDISCSynonym>
          <nciodm:CDISCDefinition>The EuroQol (European Quality of Life) Five Dimension Three Level Scale (EQ-5D-3L) (copyright 1990 EuroQol Group EQ-5D. All Rights Reserved). Question 4.</nciodm:CDISCDefinition>
          <nciodm:PreferredTerm>EQ-5D-3L - Question 4</nciodm:PreferredTerm>
        </EnumeratedItem>
        <EnumeratedItem CodedValue="EQ-5D-3L-Question 5" nciodm:ExtCodeID="C100396">
          <nciodm:CDISCSynonym>EQ-5D-3L-Question 5</nciodm:CDISCSynonym>
          <nciodm:CDISCDefinition>The EuroQol (European Quality of Life) Five Dimension Three Level Scale (EQ-5D-3L) (copyright 1990 EuroQol Group EQ-5D. All Rights Reserved). Question 5.</nciodm:CDISCDefinition>
          <nciodm:PreferredTerm>EQ-5D-3L - Question 5</nciodm:PreferredTerm>
        </EnumeratedItem>
        <EnumeratedItem CodedValue="EQ-5D-3L-Question 6" nciodm:ExtCodeID="C100397">
          <nciodm:CDISCSynonym>EQ-5D-3L-Question 6</nciodm:CDISCSynonym>
          <nciodm:CDISCDefinition>The EuroQol (European Quality of Life) Five Dimension Three Level Scale (EQ-5D-3L) (copyright 1990 EuroQol Group EQ-5D. All Rights Reserved). Question 6.</nciodm:CDISCDefinition>
          <nciodm:PreferredTerm>EQ-5D-3L - Question 6</nciodm:PreferredTerm>
        </EnumeratedItem>
        <nciodm:CDISCSubmissionValue>EQ-5D-3L TEST</nciodm:CDISCSubmissionValue>
        <nciodm:CDISCSynonym>EuroQOLFive Dimension Three Level Scale Test Name</nciodm:CDISCSynonym>
        <nciodm:PreferredTerm>CDISC Questionnaire EQ-5D-3L Test Name Terminology</nciodm:PreferredTerm>
      </CodeList>
      <CodeList OID="CL.C100136.EQ-5D-3L TESTCD" Name="EuroQOLFive Dimension Three Level Scale Test Code" DataType="text" nciodm:ExtCodeID="C100136" nciodm:CodeListExtensible="No">
        <Description>
          <TranslatedText xml:lang="en">The EuroQOL (European Quality of Life) Five Dimension three level scale test code.</TranslatedText>
        </Description>
        <EnumeratedItem CodedValue="EQ5D0101" nciodm:ExtCodeID="C100392">
          <nciodm:CDISCSynonym>EQ-5D-3L-Question 1</nciodm:CDISCSynonym>
          <nciodm:CDISCDefinition>The EuroQol (European Quality of Life) Five Dimension Three Level Scale (EQ-5D-3L) (copyright 1990 EuroQol Group EQ-5D. All Rights Reserved). Question 1.</nciodm:CDISCDefinition>
          <nciodm:PreferredTerm>EQ-5D-3L - Question 1</nciodm:PreferredTerm>
        </EnumeratedItem>
        <EnumeratedItem CodedValue="EQ5D0102" nciodm:ExtCodeID="C100393">
          <nciodm:CDISCSynonym>EQ-5D-3L-Question 2</nciodm:CDISCSynonym>
          <nciodm:CDISCDefinition>The EuroQol (European Quality of Life) Five Dimension Three Level Scale (EQ-5D-3L) (copyright 1990 EuroQol Group EQ-5D. All Rights Reserved). Question 2.</nciodm:CDISCDefinition>
          <nciodm:PreferredTerm>EQ-5D-3L - Question 2</nciodm:PreferredTerm>
        </EnumeratedItem>
        <EnumeratedItem CodedValue="EQ5D0103" nciodm:ExtCodeID="C100394">
          <nciodm:CDISCSynonym>EQ-5D-3L-Question 3</nciodm:CDISCSynonym>
          <nciodm:CDISCDefinition>The EuroQol (European Quality of Life) Five Dimension Three Level Scale (EQ-5D-3L) (copyright 1990 EuroQol Group EQ-5D. All Rights Reserved). Question 3.</nciodm:CDISCDefinition>
          <nciodm:PreferredTerm>EQ-5D-3L - Question 3</nciodm:PreferredTerm>
        </EnumeratedItem>
        <EnumeratedItem CodedValue="EQ5D0104" nciodm:ExtCodeID="C100395">
          <nciodm:CDISCSynonym>EQ-5D-3L-Question 4</nciodm:CDISCSynonym>
          <nciodm:CDISCDefinition>The EuroQol (European Quality of Life) Five Dimension Three Level Scale (EQ-5D-3L) (copyright 1990 EuroQol Group EQ-5D. All Rights Reserved). Question 4.</nciodm:CDISCDefinition>
          <nciodm:PreferredTerm>EQ-5D-3L - Question 4</nciodm:PreferredTerm>
        </EnumeratedItem>
        <EnumeratedItem CodedValue="EQ5D0105" nciodm:ExtCodeID="C100396">
          <nciodm:CDISCSynonym>EQ-5D-3L-Question 5</nciodm:CDISCSynonym>
          <nciodm:CDISCDefinition>The EuroQol (European Quality of Life) Five Dimension Three Level Scale (EQ-5D-3L) (copyright 1990 EuroQol Group EQ-5D. All Rights Reserved). Question 5.</nciodm:CDISCDefinition>
          <nciodm:PreferredTerm>EQ-5D-3L - Question 5</nciodm:PreferredTerm>
        </EnumeratedItem>
        <EnumeratedItem CodedValue="EQ5D0106" nciodm:ExtCodeID="C100397">
          <nciodm:CDISCSynonym>EQ-5D-3L-Question 6</nciodm:CDISCSynonym>
          <nciodm:CDISCDefinition>The EuroQol (European Quality of Life) Five Dimension Three Level Scale (EQ-5D-3L) (copyright 1990 EuroQol Group EQ-5D. All Rights Reserved). Question 6.</nciodm:CDISCDefinition>
          <nciodm:PreferredTerm>EQ-5D-3L - Question 6</nciodm:PreferredTerm>
        </EnumeratedItem>
        <nciodm:CDISCSubmissionValue>EQ-5D-3L TESTCD</nciodm:CDISCSubmissionValue>
        <nciodm:CDISCSynonym>EuroQOLFive Dimension Three Level Scale Test Code</nciodm:CDISCSynonym>
        <nciodm:PreferredTerm>CDISC Questionnaire EQ-5D-3L Test Code Terminology</nciodm:PreferredTerm>
      </CodeList>
      <CodeList OID="CL.C100137.HAMD 17 TEST" Name="Hamilton Depression Rating Scale - 17 Item Test Name" DataType="text" nciodm:ExtCodeID="C100137" nciodm:CodeListExtensible="No">
        <Description>
          <TranslatedText xml:lang="en">The Hamilton Depression Rating Scale - 17 Item test name.</TranslatedText>
        </Description>
        <EnumeratedItem CodedValue="HAMD1-Depressed Mood" nciodm:ExtCodeID="C100398">
          <nciodm:CDISCSynonym>HAMD1-Depressed Mood</nciodm:CDISCSynonym>
          <nciodm:CDISCDefinition>Hamilton Depression Rating Scale 17 Item - Depressed mood: sadness, hopeless, helpless, worthless.</nciodm:CDISCDefinition>
          <nciodm:PreferredTerm>HAMD-17 - Depressed Mood</nciodm:PreferredTerm>
        </EnumeratedItem>
        <EnumeratedItem CodedValue="HAMD1-Feelings of Guilt" nciodm:ExtCodeID="C100399">
          <nciodm:CDISCSynonym>HAMD1-Feelings of Guilt</nciodm:CDISCSynonym>
          <nciodm:CDISCDefinition>Hamilton Depression Rating Scale 17 Item - Feelings of guilt.</nciodm:CDISCDefinition>
          <nciodm:PreferredTerm>HAMD-17 - Feelings of Guilt</nciodm:PreferredTerm>
        </EnumeratedItem>
        <EnumeratedItem CodedValue="HAMD1-Suicide" nciodm:ExtCodeID="C100400">
          <nciodm:CDISCSynonym>HAMD1-Suicide</nciodm:CDISCSynonym>
          <nciodm:CDISCDefinition>Hamilton Depression Rating Scale 17 Item - Suicide.</nciodm:CDISCDefinition>
          <nciodm:PreferredTerm>HAMD-17 - Suicide</nciodm:PreferredTerm>
        </EnumeratedItem>
        <EnumeratedItem CodedValue="HAMD1-Insomnia Early - Early Night" nciodm:ExtCodeID="C100401">
          <nciodm:CDISCSynonym>HAMD1-Insomnia Early - Early Night</nciodm:CDISCSynonym>
          <nciodm:CDISCDefinition>Hamilton Depression Rating Scale 17 Item - Insomnia: early in the night.</nciodm:CDISCDefinition>
          <nciodm:PreferredTerm>HAMD-17 - Insomnia - Early Night</nciodm:PreferredTerm>
        </EnumeratedItem>
        <EnumeratedItem CodedValue="HAMD1-Insomnia Middle - Middle Night" nciodm:ExtCodeID="C100402">
          <nciodm:CDISCSynonym>HAMD1-Insomnia Middle - Middle Night</nciodm:CDISCSynonym>
          <nciodm:CDISCDefinition>Hamilton Depression Rating Scale 17 Item - Insomnia: middle of the night.</nciodm:CDISCDefinition>
          <nciodm:PreferredTerm>HAMD-17 - Insomnia - Middle Night</nciodm:PreferredTerm>
        </EnumeratedItem>
        <EnumeratedItem CodedValue="HAMD1-Insomnia Early Hours - Morning" nciodm:ExtCodeID="C100403">
          <nciodm:CDISCSynonym>HAMD1-Insomnia Early Hours - Morning</nciodm:CDISCSynonym>
          <nciodm:CDISCDefinition>Hamilton Depression Rating Scale 17 Item - Insomnia: early hours of the morning.</nciodm:CDISCDefinition>
          <nciodm:PreferredTerm>HAMD-17 - Insomnia - Early Morning</nciodm:PreferredTerm>
        </EnumeratedItem>
        <EnumeratedItem CodedValue="HAMD1-Work and Activities" nciodm:ExtCodeID="C100404">
          <nciodm:CDISCSynonym>HAMD1-Work and Activities</nciodm:CDISCSynonym>
          <nciodm:CDISCDefinition>Hamilton Depression Rating Scale 17 Item - Work and activities.</nciodm:CDISCDefinition>
          <nciodm:PreferredTerm>HAMD-17 - Work and Activities</nciodm:PreferredTerm>
        </EnumeratedItem>
        <EnumeratedItem CodedValue="HAMD1-Retardation" nciodm:ExtCodeID="C100405">
          <nciodm:CDISCSynonym>HAMD1-Retardation</nciodm:CDISCSynonym>
          <nciodm:CDISCDefinition>Hamilton Depression Rating Scale 17 Item - Retardation.</nciodm:CDISCDefinition>
          <nciodm:PreferredTerm>HAMD-17 - Retardation</nciodm:PreferredTerm>
        </EnumeratedItem>
        <EnumeratedItem CodedValue="HAMD1-Agitation" nciodm:ExtCodeID="C100406">
          <nciodm:CDISCSynonym>HAMD1-Agitation</nciodm:CDISCSynonym>
          <nciodm:CDISCDefinition>Hamilton Depression Rating Scale 17 Item - Agitation.</nciodm:CDISCDefinition>
          <nciodm:PreferredTerm>HAMD-17 - Agitation</nciodm:PreferredTerm>
        </EnumeratedItem>
        <EnumeratedItem CodedValue="HAMD1-Anxiety Psychic" nciodm:ExtCodeID="C100407">
          <nciodm:CDISCSynonym>HAMD1-Anxiety Psychic</nciodm:CDISCSynonym>
          <nciodm:CDISCDefinition>Hamilton Depression Rating Scale 17 Item - Anxiety psychic.</nciodm:CDISCDefinition>
          <nciodm:PreferredTerm>HAMD-17 - Psychic Anxiety</nciodm:PreferredTerm>
        </EnumeratedItem>
        <EnumeratedItem CodedValue="HAMD1-Anxiety Somatic" nciodm:ExtCodeID="C100408">
          <nciodm:CDISCSynonym>HAMD1-Anxiety Somatic</nciodm:CDISCSynonym>
          <nciodm:CDISCDefinition>Hamilton Depression Rating Scale 17 Item - Anxiety somatic: physiological concomitants of anxiety such as gastro-intestinal (dry mouth, wind, indigestion, diarrhea, cramps, belching), cardiovascular (palpitations, headaches), respiratory (hyperventilation, sighing), urinary frequency, sweating.</nciodm:CDISCDefinition>
          <nciodm:PreferredTerm>HAMD-17 - Somatic Anxiety</nciodm:PreferredTerm>
        </EnumeratedItem>
        <EnumeratedItem CodedValue="HAMD1-Somatic Symptoms GI" nciodm:ExtCodeID="C100409">
          <nciodm:CDISCSynonym>HAMD1-Somatic Symptoms GI</nciodm:CDISCSynonym>
          <nciodm:CDISCDefinition>Hamilton Depression Rating Scale 17 Item - Somatic symptoms gastro-intestinal.</nciodm:CDISCDefinition>
          <nciodm:PreferredTerm>HAMD-17 - Gastrointestinal Somatic Symptoms</nciodm:PreferredTerm>
        </EnumeratedItem>
        <EnumeratedItem CodedValue="HAMD1-General Somatic Symptoms" nciodm:ExtCodeID="C100410">
          <nciodm:CDISCSynonym>HAMD1-General Somatic Symptoms</nciodm:CDISCSynonym>
          <nciodm:CDISCDefinition>Hamilton Depression Rating Scale 17 Item - General somatic symptoms.</nciodm:CDISCDefinition>
          <nciodm:PreferredTerm>HAMD-17 - General Somatic Symptoms</nciodm:PreferredTerm>
        </EnumeratedItem>
        <EnumeratedItem CodedValue="HAMD1-Genital Symptoms" nciodm:ExtCodeID="C100411">
          <nciodm:CDISCSynonym>HAMD1-Genital Symptoms</nciodm:CDISCSynonym>
          <nciodm:CDISCDefinition>Hamilton Depression Rating Scale 17 Item - Genital symptoms: symptoms such as loss of libido, menstrual disturbances.</nciodm:CDISCDefinition>
          <nciodm:PreferredTerm>HAMD-17 - Genital Symptoms</nciodm:PreferredTerm>
        </EnumeratedItem>
        <EnumeratedItem CodedValue="HAMD1-Hypochondriasis" nciodm:ExtCodeID="C100412">
          <nciodm:CDISCSynonym>HAMD1-Hypochondriasis</nciodm:CDISCSynonym>
          <nciodm:CDISCDefinition>Hamilton Depression Rating Scale 17 Item - Hypochondriasis.</nciodm:CDISCDefinition>
          <nciodm:PreferredTerm>HAMD-17 - Hypochondriasis</nciodm:PreferredTerm>
        </EnumeratedItem>
        <EnumeratedItem CodedValue="HAMD1-Loss of WT According to Patient" nciodm:ExtCodeID="C100413">
          <nciodm:CDISCSynonym>HAMD1-Loss of WT According to Patient</nciodm:CDISCSynonym>
          <nciodm:CDISCDefinition>Hamilton Depression Rating Scale 17 Item - Loss of weight according to the patient.</nciodm:CDISCDefinition>
          <nciodm:PreferredTerm>HAMD-17 - Loss of Weight According to Patient</nciodm:PreferredTerm>
        </EnumeratedItem>
        <EnumeratedItem CodedValue="HAMD1-Loss of WT According to WK Meas" nciodm:ExtCodeID="C100414">
          <nciodm:CDISCSynonym>HAMD1-Loss of WT According to WK Meas</nciodm:CDISCSynonym>
          <nciodm:CDISCDefinition>Hamilton Depression Rating Scale 17 Item - Loss of weight according to weekly measurements.</nciodm:CDISCDefinition>
          <nciodm:PreferredTerm>HAMD-17 - Loss of Weight According to Weekly Measurements</nciodm:PreferredTerm>
        </EnumeratedItem>
        <EnumeratedItem CodedValue="HAMD1-Insight" nciodm:ExtCodeID="C100415">
          <nciodm:CDISCSynonym>HAMD1-Insight</nciodm:CDISCSynonym>
          <nciodm:CDISCDefinition>Hamilton Depression Rating Scale 17 Item - Insight.</nciodm:CDISCDefinition>
          <nciodm:PreferredTerm>HAMD-17 - Insight</nciodm:PreferredTerm>
        </EnumeratedItem>
        <EnumeratedItem CodedValue="HAMD1-Total Score" nciodm:ExtCodeID="C100416">
          <nciodm:CDISCSynonym>HAMD1-Total Score</nciodm:CDISCSynonym>
          <nciodm:CDISCDefinition>Hamilton Depression Rating Scale 17 Item - Total Score.</nciodm:CDISCDefinition>
          <nciodm:PreferredTerm>HAMD-17 - Total Score</nciodm:PreferredTerm>
        </EnumeratedItem>
        <nciodm:CDISCSubmissionValue>HAMD 17 TEST</nciodm:CDISCSubmissionValue>
        <nciodm:CDISCSynonym>Hamilton Depression Rating Scale - 17 Item Test Name</nciodm:CDISCSynonym>
        <nciodm:PreferredTerm>CDISC Questionnaire HAMD 17 Test Name Terminology</nciodm:PreferredTerm>
      </CodeList>
      <CodeList OID="CL.C100138.HAMD 17 TESTCD" Name="Hamilton Depression Rating Scale - 17 Item Test Code" DataType="text" nciodm:ExtCodeID="C100138" nciodm:CodeListExtensible="No">
        <Description>
          <TranslatedText xml:lang="en">The Hamilton Depression Rating Scale - 17 Item test code.</TranslatedText>
        </Description>
        <EnumeratedItem CodedValue="HAMD101" nciodm:ExtCodeID="C100398">
          <nciodm:CDISCSynonym>HAMD1-Depressed Mood</nciodm:CDISCSynonym>
          <nciodm:CDISCDefinition>Hamilton Depression Rating Scale 17 Item - Depressed mood: sadness, hopeless, helpless, worthless.</nciodm:CDISCDefinition>
          <nciodm:PreferredTerm>HAMD-17 - Depressed Mood</nciodm:PreferredTerm>
        </EnumeratedItem>
        <EnumeratedItem CodedValue="HAMD102" nciodm:ExtCodeID="C100399">
          <nciodm:CDISCSynonym>HAMD1-Feelings of Guilt</nciodm:CDISCSynonym>
          <nciodm:CDISCDefinition>Hamilton Depression Rating Scale 17 Item - Feelings of guilt.</nciodm:CDISCDefinition>
          <nciodm:PreferredTerm>HAMD-17 - Feelings of Guilt</nciodm:PreferredTerm>
        </EnumeratedItem>
        <EnumeratedItem CodedValue="HAMD103" nciodm:ExtCodeID="C100400">
          <nciodm:CDISCSynonym>HAMD1-Suicide</nciodm:CDISCSynonym>
          <nciodm:CDISCDefinition>Hamilton Depression Rating Scale 17 Item - Suicide.</nciodm:CDISCDefinition>
          <nciodm:PreferredTerm>HAMD-17 - Suicide</nciodm:PreferredTerm>
        </EnumeratedItem>
        <EnumeratedItem CodedValue="HAMD104" nciodm:ExtCodeID="C100401">
          <nciodm:CDISCSynonym>HAMD1-Insomnia Early - Early Night</nciodm:CDISCSynonym>
          <nciodm:CDISCDefinition>Hamilton Depression Rating Scale 17 Item - Insomnia: early in the night.</nciodm:CDISCDefinition>
          <nciodm:PreferredTerm>HAMD-17 - Insomnia - Early Night</nciodm:PreferredTerm>
        </EnumeratedItem>
        <EnumeratedItem CodedValue="HAMD105" nciodm:ExtCodeID="C100402">
          <nciodm:CDISCSynonym>HAMD1-Insomnia Middle - Middle Night</nciodm:CDISCSynonym>
          <nciodm:CDISCDefinition>Hamilton Depression Rating Scale 17 Item - Insomnia: middle of the night.</nciodm:CDISCDefinition>
          <nciodm:PreferredTerm>HAMD-17 - Insomnia - Middle Night</nciodm:PreferredTerm>
        </EnumeratedItem>
        <EnumeratedItem CodedValue="HAMD106" nciodm:ExtCodeID="C100403">
          <nciodm:CDISCSynonym>HAMD1-Insomnia Early Hours - Morning</nciodm:CDISCSynonym>
          <nciodm:CDISCDefinition>Hamilton Depression Rating Scale 17 Item - Insomnia: early hours of the morning.</nciodm:CDISCDefinition>
          <nciodm:PreferredTerm>HAMD-17 - Insomnia - Early Morning</nciodm:PreferredTerm>
        </EnumeratedItem>
        <EnumeratedItem CodedValue="HAMD107" nciodm:ExtCodeID="C100404">
          <nciodm:CDISCSynonym>HAMD1-Work and Activities</nciodm:CDISCSynonym>
          <nciodm:CDISCDefinition>Hamilton Depression Rating Scale 17 Item - Work and activities.</nciodm:CDISCDefinition>
          <nciodm:PreferredTerm>HAMD-17 - Work and Activities</nciodm:PreferredTerm>
        </EnumeratedItem>
        <EnumeratedItem CodedValue="HAMD108" nciodm:ExtCodeID="C100405">
          <nciodm:CDISCSynonym>HAMD1-Retardation</nciodm:CDISCSynonym>
          <nciodm:CDISCDefinition>Hamilton Depression Rating Scale 17 Item - Retardation.</nciodm:CDISCDefinition>
          <nciodm:PreferredTerm>HAMD-17 - Retardation</nciodm:PreferredTerm>
        </EnumeratedItem>
        <EnumeratedItem CodedValue="HAMD109" nciodm:ExtCodeID="C100406">
          <nciodm:CDISCSynonym>HAMD1-Agitation</nciodm:CDISCSynonym>
          <nciodm:CDISCDefinition>Hamilton Depression Rating Scale 17 Item - Agitation.</nciodm:CDISCDefinition>
          <nciodm:PreferredTerm>HAMD-17 - Agitation</nciodm:PreferredTerm>
        </EnumeratedItem>
        <EnumeratedItem CodedValue="HAMD110" nciodm:ExtCodeID="C100407">
          <nciodm:CDISCSynonym>HAMD1-Anxiety Psychic</nciodm:CDISCSynonym>
          <nciodm:CDISCDefinition>Hamilton Depression Rating Scale 17 Item - Anxiety psychic.</nciodm:CDISCDefinition>
          <nciodm:PreferredTerm>HAMD-17 - Psychic Anxiety</nciodm:PreferredTerm>
        </EnumeratedItem>
        <EnumeratedItem CodedValue="HAMD111" nciodm:ExtCodeID="C100408">
          <nciodm:CDISCSynonym>HAMD1-Anxiety Somatic</nciodm:CDISCSynonym>
          <nciodm:CDISCDefinition>Hamilton Depression Rating Scale 17 Item - Anxiety somatic: physiological concomitants of anxiety such as gastro-intestinal (dry mouth, wind, indigestion, diarrhea, cramps, belching), cardiovascular (palpitations, headaches), respiratory (hyperventilation, sighing), urinary frequency, sweating.</nciodm:CDISCDefinition>
          <nciodm:PreferredTerm>HAMD-17 - Somatic Anxiety</nciodm:PreferredTerm>
        </EnumeratedItem>
        <EnumeratedItem CodedValue="HAMD112" nciodm:ExtCodeID="C100409">
          <nciodm:CDISCSynonym>HAMD1-Somatic Symptoms GI</nciodm:CDISCSynonym>
          <nciodm:CDISCDefinition>Hamilton Depression Rating Scale 17 Item - Somatic symptoms gastro-intestinal.</nciodm:CDISCDefinition>
          <nciodm:PreferredTerm>HAMD-17 - Gastrointestinal Somatic Symptoms</nciodm:PreferredTerm>
        </EnumeratedItem>
        <EnumeratedItem CodedValue="HAMD0113" nciodm:ExtCodeID="C100410">
          <nciodm:CDISCSynonym>HAMD1-General Somatic Symptoms</nciodm:CDISCSynonym>
          <nciodm:CDISCDefinition>Hamilton Depression Rating Scale 17 Item - General somatic symptoms.</nciodm:CDISCDefinition>
          <nciodm:PreferredTerm>HAMD-17 - General Somatic Symptoms</nciodm:PreferredTerm>
        </EnumeratedItem>
        <EnumeratedItem CodedValue="HAMD114" nciodm:ExtCodeID="C100411">
          <nciodm:CDISCSynonym>HAMD1-Genital Symptoms</nciodm:CDISCSynonym>
          <nciodm:CDISCDefinition>Hamilton Depression Rating Scale 17 Item - Genital symptoms: symptoms such as loss of libido, menstrual disturbances.</nciodm:CDISCDefinition>
          <nciodm:PreferredTerm>HAMD-17 - Genital Symptoms</nciodm:PreferredTerm>
        </EnumeratedItem>
        <EnumeratedItem CodedValue="HAMD115" nciodm:ExtCodeID="C100412">
          <nciodm:CDISCSynonym>HAMD1-Hypochondriasis</nciodm:CDISCSynonym>
          <nciodm:CDISCDefinition>Hamilton Depression Rating Scale 17 Item - Hypochondriasis.</nciodm:CDISCDefinition>
          <nciodm:PreferredTerm>HAMD-17 - Hypochondriasis</nciodm:PreferredTerm>
        </EnumeratedItem>
        <EnumeratedItem CodedValue="HAMD116A" nciodm:ExtCodeID="C100413">
          <nciodm:CDISCSynonym>HAMD1-Loss of WT According to Patient</nciodm:CDISCSynonym>
          <nciodm:CDISCDefinition>Hamilton Depression Rating Scale 17 Item - Loss of weight according to the patient.</nciodm:CDISCDefinition>
          <nciodm:PreferredTerm>HAMD-17 - Loss of Weight According to Patient</nciodm:PreferredTerm>
        </EnumeratedItem>
        <EnumeratedItem CodedValue="HAMD116B" nciodm:ExtCodeID="C100414">
          <nciodm:CDISCSynonym>HAMD1-Loss of WT According to WK Meas</nciodm:CDISCSynonym>
          <nciodm:CDISCDefinition>Hamilton Depression Rating Scale 17 Item - Loss of weight according to weekly measurements.</nciodm:CDISCDefinition>
          <nciodm:PreferredTerm>HAMD-17 - Loss of Weight According to Weekly Measurements</nciodm:PreferredTerm>
        </EnumeratedItem>
        <EnumeratedItem CodedValue="HAMD117" nciodm:ExtCodeID="C100415">
          <nciodm:CDISCSynonym>HAMD1-Insight</nciodm:CDISCSynonym>
          <nciodm:CDISCDefinition>Hamilton Depression Rating Scale 17 Item - Insight.</nciodm:CDISCDefinition>
          <nciodm:PreferredTerm>HAMD-17 - Insight</nciodm:PreferredTerm>
        </EnumeratedItem>
        <EnumeratedItem CodedValue="HAMD118" nciodm:ExtCodeID="C100416">
          <nciodm:CDISCSynonym>HAMD1-Total Score</nciodm:CDISCSynonym>
          <nciodm:CDISCDefinition>Hamilton Depression Rating Scale 17 Item - Total Score.</nciodm:CDISCDefinition>
          <nciodm:PreferredTerm>HAMD-17 - Total Score</nciodm:PreferredTerm>
        </EnumeratedItem>
        <nciodm:CDISCSubmissionValue>HAMD 17 TESTCD</nciodm:CDISCSubmissionValue>
        <nciodm:CDISCSynonym>Hamilton Depression Rating Scale - 17 Item Test Code</nciodm:CDISCSynonym>
        <nciodm:PreferredTerm>CDISC Questionnaire HAMD 17 Test Code Terminology</nciodm:PreferredTerm>
      </CodeList>
      <CodeList OID="CL.C100139.MDS-UPDRS TEST" Name="Movement Disorder Society UPDRS Test Name" DataType="text" nciodm:ExtCodeID="C100139" nciodm:CodeListExtensible="No">
        <Description>
          <TranslatedText xml:lang="en">The Movement Disorder Society version of the Unified Parkinson's Disease Rating Scale test name.</TranslatedText>
        </Description>
        <EnumeratedItem CodedValue="UPD2-Get Out of Bed/Car/Deep Chair" nciodm:ExtCodeID="C101018">
          <nciodm:CDISCSynonym>UPD2-Get Out of Bed/Car/Deep Chair</nciodm:CDISCSynonym>
          <nciodm:CDISCDefinition>The Movement Disorder Society version of the Unified Parkinson's Disease Rating Scale - Over the past week, have you usually had trouble getting out of bed, a car seat, or a deep chair?</nciodm:CDISCDefinition>
          <nciodm:PreferredTerm>MDS-UPDRS - Get Out of Bed, Car, or Deep Chair</nciodm:PreferredTerm>
        </EnumeratedItem>
        <EnumeratedItem CodedValue="UPD2-Cognitive Impairment" nciodm:ExtCodeID="C100473">
          <nciodm:CDISCSynonym>UPD2-Cognitive Impairment</nciodm:CDISCSynonym>
          <nciodm:CDISCDefinition>The Movement Disorder Society version of the Unified Parkinson's Disease Rating Scale - Over the past week have you had problems remembering things, following conversations, paying attention, thinking clearly, or finding your way around the house or in town?</nciodm:CDISCDefinition>
          <nciodm:PreferredTerm>MDS-UPDRS - Cognitive Impairment</nciodm:PreferredTerm>
        </EnumeratedItem>
        <EnumeratedItem CodedValue="UPD2-Hallucinations and Psychosis" nciodm:ExtCodeID="C100474">
          <nciodm:CDISCSynonym>UPD2-Hallucinations and Psychosis</nciodm:CDISCSynonym>
          <nciodm:CDISCDefinition>The Movement Disorder Society version of the Unified Parkinson's Disease Rating Scale - Over the past week have you seen, heard, smelled or felt things that were not really there?</nciodm:CDISCDefinition>
          <nciodm:PreferredTerm>MDS-UPDRS - Hallucinations and Psychosis</nciodm:PreferredTerm>
        </EnumeratedItem>
        <EnumeratedItem CodedValue="UPD2-Depressed Mood" nciodm:ExtCodeID="C100475">
          <nciodm:CDISCSynonym>UPD2-Depressed Mood</nciodm:CDISCSynonym>
          <nciodm:CDISCDefinition>The Movement Disorder Society version of the Unified Parkinson's Disease Rating Scale - Over the past week have you felt low, sad, hopeless or unable to enjoy things? If yes, was this feeling for longer than one day at a time? Did it make it difficult for you carry out your usual activities or to be with people?</nciodm:CDISCDefinition>
          <nciodm:PreferredTerm>MDS-UPDRS - Depressed Mood</nciodm:PreferredTerm>
        </EnumeratedItem>
        <EnumeratedItem CodedValue="UPD2-Anxious Mood" nciodm:ExtCodeID="C100476">
          <nciodm:CDISCSynonym>UPD2-Anxious Mood</nciodm:CDISCSynonym>
          <nciodm:CDISCDefinition>The Movement Disorder Society version of the Unified Parkinson's Disease Rating Scale - Over the past week have you felt nervous, worried or tense? If yes, was this feeling for longer than one day at a time? Did it make it difficult for you to follow your usual activities or to be with other people?</nciodm:CDISCDefinition>
          <nciodm:PreferredTerm>MDS-UPDRS - Anxious Mood</nciodm:PreferredTerm>
        </EnumeratedItem>
        <EnumeratedItem CodedValue="UPD2-Apathy" nciodm:ExtCodeID="C100477">
          <nciodm:CDISCSynonym>UPD2-Apathy</nciodm:CDISCSynonym>
          <nciodm:CDISCDefinition>The Movement Disorder Society version of the Unified Parkinson's Disease Rating Scale - Over the past week, have you felt indifferent to doing activities or being with people?</nciodm:CDISCDefinition>
          <nciodm:PreferredTerm>MDS-UPDRS - Apathy</nciodm:PreferredTerm>
        </EnumeratedItem>
        <EnumeratedItem CodedValue="UPD2-Ftrs Dopa Dysregulation Synd" nciodm:ExtCodeID="C100478">
          <nciodm:CDISCSynonym>UPD2-Ftrs Dopa Dysregulation Synd</nciodm:CDISCSynonym>
          <nciodm:CDISCDefinition>The Movement Disorder Society version of the Unified Parkinson's Disease Rating Scale - Over the past week, have you had unusually strong urges that are hard to control? Do you feel driven to do or think about something and find it hard to stop?</nciodm:CDISCDefinition>
          <nciodm:PreferredTerm>MDS-UPDRS - Features of Dopamine Dysregulation Syndrome</nciodm:PreferredTerm>
        </EnumeratedItem>
        <EnumeratedItem CodedValue="UPD2-Sleep Problems" nciodm:ExtCodeID="C100479">
          <nciodm:CDISCSynonym>UPD2-Sleep Problems</nciodm:CDISCSynonym>
          <nciodm:CDISCDefinition>The Movement Disorder Society version of the Unified Parkinson's Disease Rating Scale - Over the past week, have you had trouble going to sleep at night or staying asleep through the night?</nciodm:CDISCDefinition>
          <nciodm:PreferredTerm>MDS-UPDRS - Sleep Problems</nciodm:PreferredTerm>
        </EnumeratedItem>
        <EnumeratedItem CodedValue="UPD2-Daytime Sleepiness" nciodm:ExtCodeID="C100480">
          <nciodm:CDISCSynonym>UPD2-Daytime Sleepiness</nciodm:CDISCSynonym>
          <nciodm:CDISCDefinition>The Movement Disorder Society version of the Unified Parkinson's Disease Rating Scale - Over the past week, have you had trouble staying awake during the daytime?</nciodm:CDISCDefinition>
          <nciodm:PreferredTerm>MDS-UPDRS - Daytime Sleepiness</nciodm:PreferredTerm>
        </EnumeratedItem>
        <EnumeratedItem CodedValue="UPD2-Pain and other Sensations" nciodm:ExtCodeID="C100481">
          <nciodm:CDISCSynonym>UPD2-Pain and other Sensations</nciodm:CDISCSynonym>
          <nciodm:CDISCDefinition>The Movement Disorder Society version of the Unified Parkinson's Disease Rating Scale - Over the past week, have you had uncomfortable feelings in your body like pain, aches tingling or cramps?</nciodm:CDISCDefinition>
          <nciodm:PreferredTerm>MDS-UPDRS - Pain and Other Sensations</nciodm:PreferredTerm>
        </EnumeratedItem>
        <EnumeratedItem CodedValue="UPD2-Urinary Problems" nciodm:ExtCodeID="C100482">
          <nciodm:CDISCSynonym>UPD2-Urinary Problems</nciodm:CDISCSynonym>
          <nciodm:CDISCDefinition>The Movement Disorder Society version of the Unified Parkinson's Disease Rating Scale - Over the past week, have you had trouble with urine control?</nciodm:CDISCDefinition>
          <nciodm:PreferredTerm>MDS-UPDRS - Urinary Problems</nciodm:PreferredTerm>
        </EnumeratedItem>
        <EnumeratedItem CodedValue="UPD2-Constipation Problems" nciodm:ExtCodeID="C100483">
          <nciodm:CDISCSynonym>UPD2-Constipation Problems</nciodm:CDISCSynonym>
          <nciodm:CDISCDefinition>The Movement Disorder Society version of the Unified Parkinson's Disease Rating Scale - Over the past week have you had constipation troubles that cause you difficulty moving your bowels?</nciodm:CDISCDefinition>
          <nciodm:PreferredTerm>MDS-UPDRS - Constipation Problems</nciodm:PreferredTerm>
        </EnumeratedItem>
        <EnumeratedItem CodedValue="UPD2-Lightheadedness on Standing" nciodm:ExtCodeID="C100484">
          <nciodm:CDISCSynonym>UPD2-Lightheadedness on Standing</nciodm:CDISCSynonym>
          <nciodm:CDISCDefinition>The Movement Disorder Society version of the Unified Parkinson's Disease Rating Scale - Over the past week, have you felt faint, dizzy or foggy when you stand up after sitting or lying down?</nciodm:CDISCDefinition>
          <nciodm:PreferredTerm>MDS-UPDRS - Lightheadedness on Standing</nciodm:PreferredTerm>
        </EnumeratedItem>
        <EnumeratedItem CodedValue="UPD2-Fatigue" nciodm:ExtCodeID="C100485">
          <nciodm:CDISCSynonym>UPD2-Fatigue</nciodm:CDISCSynonym>
          <nciodm:CDISCDefinition>The Movement Disorder Society version of the Unified Parkinson's Disease Rating Scale - Over the past week, have you usually felt fatigued?</nciodm:CDISCDefinition>
          <nciodm:PreferredTerm>MDS-UPDRS - Fatigue</nciodm:PreferredTerm>
        </EnumeratedItem>
        <EnumeratedItem CodedValue="UPD2-Speech" nciodm:ExtCodeID="C100486">
          <nciodm:CDISCSynonym>UPD2-Speech</nciodm:CDISCSynonym>
          <nciodm:CDISCDefinition>The Movement Disorder Society version of the Unified Parkinson's Disease Rating Scale - Over the past week, have you had problems with your speech?</nciodm:CDISCDefinition>
          <nciodm:PreferredTerm>MDS-UPDRS - Speech</nciodm:PreferredTerm>
        </EnumeratedItem>
        <EnumeratedItem CodedValue="UPD2-Saliva and Drooling" nciodm:ExtCodeID="C100487">
          <nciodm:CDISCSynonym>UPD2-Saliva and Drooling</nciodm:CDISCSynonym>
          <nciodm:CDISCDefinition>The Movement Disorder Society version of the Unified Parkinson's Disease Rating Scale - Over the past week, have you usually had too much saliva during when you are awake or when you sleep?</nciodm:CDISCDefinition>
          <nciodm:PreferredTerm>MDS-UPDRS - Saliva and Drooling</nciodm:PreferredTerm>
        </EnumeratedItem>
        <EnumeratedItem CodedValue="UPD2-Chewing and Swallowing" nciodm:ExtCodeID="C100488">
          <nciodm:CDISCSynonym>UPD2-Chewing and Swallowing</nciodm:CDISCSynonym>
          <nciodm:CDISCDefinition>The Movement Disorder Society version of the Unified Parkinson's Disease Rating Scale - Over the past week, have you usually had problems swallowing pills or eating meals?</nciodm:CDISCDefinition>
          <nciodm:PreferredTerm>MDS-UPDRS - Chewing and Swallowing</nciodm:PreferredTerm>
        </EnumeratedItem>
        <EnumeratedItem CodedValue="UPD2-Eating Tasks" nciodm:ExtCodeID="C100489">
          <nciodm:CDISCSynonym>UPD2-Eating Tasks</nciodm:CDISCSynonym>
          <nciodm:CDISCDefinition>The Movement Disorder Society version of the Unified Parkinson's Disease Rating Scale - Over the past week, have you usually had troubles handling your food and using eating utensils?</nciodm:CDISCDefinition>
          <nciodm:PreferredTerm>MDS-UPDRS - Eating Tasks</nciodm:PreferredTerm>
        </EnumeratedItem>
        <EnumeratedItem CodedValue="UPD2-Dressing" nciodm:ExtCodeID="C100490">
          <nciodm:CDISCSynonym>UPD2-Dressing</nciodm:CDISCSynonym>
          <nciodm:CDISCDefinition>The Movement Disorder Society version of the Unified Parkinson's Disease Rating Scale - Over the past week, have you usually had problems dressing?</nciodm:CDISCDefinition>
          <nciodm:PreferredTerm>MDS-UPDRS - Dressing</nciodm:PreferredTerm>
        </EnumeratedItem>
        <EnumeratedItem CodedValue="UPD2-Hygiene" nciodm:ExtCodeID="C100491">
          <nciodm:CDISCSynonym>UPD2-Hygiene</nciodm:CDISCSynonym>
          <nciodm:CDISCDefinition>The Movement Disorder Society version of the Unified Parkinson's Disease Rating Scale - Over the past week, have you usually been slow or do you need help with washing, bathing, shaving, brushing teeth, combing your hair or with other personal hygiene?</nciodm:CDISCDefinition>
          <nciodm:PreferredTerm>MDS-UPDRS - Hygiene</nciodm:PreferredTerm>
        </EnumeratedItem>
        <EnumeratedItem CodedValue="UPD2-Handwriting" nciodm:ExtCodeID="C100492">
          <nciodm:CDISCSynonym>UPD2-Handwriting</nciodm:CDISCSynonym>
          <nciodm:CDISCDefinition>The Movement Disorder Society version of the Unified Parkinson's Disease Rating Scale - Over the past week, have people usually had trouble reading your handwriting?</nciodm:CDISCDefinition>
          <nciodm:PreferredTerm>MDS-UPDRS - Handwriting</nciodm:PreferredTerm>
        </EnumeratedItem>
        <EnumeratedItem CodedValue="UPD2-Doing Hobbies/Other Activities" nciodm:ExtCodeID="C100493">
          <nciodm:CDISCSynonym>UPD2-Doing Hobbies/Other Activities</nciodm:CDISCSynonym>
          <nciodm:CDISCDefinition>The Movement Disorder Society version of the Unified Parkinson's Disease Rating Scale - Over the past week, have you usually had trouble doing your hobbies or other things that you like to do?</nciodm:CDISCDefinition>
          <nciodm:PreferredTerm>MDS-UPDRS - Doing Hobbies and Other Activities</nciodm:PreferredTerm>
        </EnumeratedItem>
        <EnumeratedItem CodedValue="UPD2-Turning in Bed" nciodm:ExtCodeID="C100494">
          <nciodm:CDISCSynonym>UPD2-Turning in Bed</nciodm:CDISCSynonym>
          <nciodm:CDISCDefinition>The Movement Disorder Society version of the Unified Parkinson's Disease Rating Scale - Over the past week, do you usually have trouble turning over in bed?</nciodm:CDISCDefinition>
          <nciodm:PreferredTerm>MDS-UPDRS - Turning in Bed</nciodm:PreferredTerm>
        </EnumeratedItem>
        <EnumeratedItem CodedValue="UPD2-Tremor" nciodm:ExtCodeID="C100495">
          <nciodm:CDISCSynonym>UPD2-Tremor</nciodm:CDISCSynonym>
          <nciodm:CDISCDefinition>The Movement Disorder Society version of the Unified Parkinson's Disease Rating Scale - Over the past week, have you usually had shaking or tremor?</nciodm:CDISCDefinition>
          <nciodm:PreferredTerm>MDS-UPDRS - Tremor</nciodm:PreferredTerm>
        </EnumeratedItem>
        <EnumeratedItem CodedValue="UPD2-Walking and Balance" nciodm:ExtCodeID="C100496">
          <nciodm:CDISCSynonym>UPD2-Walking and Balance</nciodm:CDISCSynonym>
          <nciodm:CDISCDefinition>The Movement Disorder Society version of the Unified Parkinson's Disease Rating Scale - Over the past week, have you usually had problems with balance and walking?</nciodm:CDISCDefinition>
          <nciodm:PreferredTerm>MDS-UPDRS - Walking and Balance</nciodm:PreferredTerm>
        </EnumeratedItem>
        <EnumeratedItem CodedValue="UPD2-Freezing" nciodm:ExtCodeID="C100497">
          <nciodm:CDISCSynonym>UPD2-Freezing</nciodm:CDISCSynonym>
          <nciodm:CDISCDefinition>The Movement Disorder Society version of the Unified Parkinson's Disease Rating Scale - Over the past week, on your usual day when walking, do you suddenly stop or freeze as if your feet are stuck to the floor?</nciodm:CDISCDefinition>
          <nciodm:PreferredTerm>MDS-UPDRS - Freezing</nciodm:PreferredTerm>
        </EnumeratedItem>
        <EnumeratedItem CodedValue="UPD2-Medication for PD" nciodm:ExtCodeID="C100498">
          <nciodm:CDISCSynonym>UPD2-Medication for PD</nciodm:CDISCSynonym>
          <nciodm:CDISCDefinition>The Movement Disorder Society version of the Unified Parkinson's Disease Rating Scale - Is the patient on medication for treating the symptoms of Parkinson's Disease?</nciodm:CDISCDefinition>
          <nciodm:PreferredTerm>MDS-UPDRS - Medication for Parkinson's Disease</nciodm:PreferredTerm>
        </EnumeratedItem>
        <EnumeratedItem CodedValue="UPD2-Clinical State on Meds" nciodm:ExtCodeID="C100499">
          <nciodm:CDISCSynonym>UPD2-Clinical State on Meds</nciodm:CDISCSynonym>
          <nciodm:CDISCDefinition>The Movement Disorder Society version of the Unified Parkinson's Disease Rating Scale - If the patient is receiving medication for treating the symptoms of Parkinson's Disease, mark the patient's clinical state.</nciodm:CDISCDefinition>
          <nciodm:PreferredTerm>MDS-UPDRS - Clinical State on Medication</nciodm:PreferredTerm>
        </EnumeratedItem>
        <EnumeratedItem CodedValue="UPD2-Taking Levodopa" nciodm:ExtCodeID="C100500">
          <nciodm:CDISCSynonym>UPD2-Taking Levodopa</nciodm:CDISCSynonym>
          <nciodm:CDISCDefinition>The Movement Disorder Society version of the Unified Parkinson's Disease Rating Scale - Is the patient on Levodopa?</nciodm:CDISCDefinition>
          <nciodm:PreferredTerm>MDS-UPDRS - Taking Levodopa</nciodm:PreferredTerm>
        </EnumeratedItem>
        <EnumeratedItem CodedValue="UPD2-Minutes Since Levodopa Dose" nciodm:ExtCodeID="C100501">
          <nciodm:CDISCSynonym>UPD2-Minutes Since Levodopa Dose</nciodm:CDISCSynonym>
          <nciodm:CDISCDefinition>The Movement Disorder Society version of the Unified Parkinson's Disease Rating Scale - Minutes since last Levodopa dose.</nciodm:CDISCDefinition>
          <nciodm:PreferredTerm>MDS-UPDRS - Minutes Since Levodopa Dose</nciodm:PreferredTerm>
        </EnumeratedItem>
        <EnumeratedItem CodedValue="UPD2-Speech Problems" nciodm:ExtCodeID="C100502">
          <nciodm:CDISCSynonym>UPD2-Speech Problems</nciodm:CDISCSynonym>
          <nciodm:CDISCDefinition>The Movement Disorder Society version of the Unified Parkinson's Disease Rating Scale - Speech Problems.</nciodm:CDISCDefinition>
          <nciodm:PreferredTerm>MDS-UPDRS - Speech Problems</nciodm:PreferredTerm>
        </EnumeratedItem>
        <EnumeratedItem CodedValue="UPD2-Facial Expression" nciodm:ExtCodeID="C100503">
          <nciodm:CDISCSynonym>UPD2-Facial Expression</nciodm:CDISCSynonym>
          <nciodm:CDISCDefinition>The Movement Disorder Society version of the Unified Parkinson's Disease Rating Scale - Facial Expression.</nciodm:CDISCDefinition>
          <nciodm:PreferredTerm>MDS-UPDRS - Facial Expression</nciodm:PreferredTerm>
        </EnumeratedItem>
        <EnumeratedItem CodedValue="UPD2-Rigidity Neck" nciodm:ExtCodeID="C100504">
          <nciodm:CDISCSynonym>UPD2-Rigidity Neck</nciodm:CDISCSynonym>
          <nciodm:CDISCDefinition>The Movement Disorder Society version of the Unified Parkinson's Disease Rating Scale - Rigidity Neck.</nciodm:CDISCDefinition>
          <nciodm:PreferredTerm>MDS-UPDRS - Rigidity Neck</nciodm:PreferredTerm>
        </EnumeratedItem>
        <EnumeratedItem CodedValue="UPD2-Rigidity RT Upper Extremity" nciodm:ExtCodeID="C100505">
          <nciodm:CDISCSynonym>UPD2-Rigidity RT Upper Extremity</nciodm:CDISCSynonym>
          <nciodm:CDISCDefinition>The Movement Disorder Society version of the Unified Parkinson's Disease Rating Scale - Rigidity Right Upper Extremity.</nciodm:CDISCDefinition>
          <nciodm:PreferredTerm>MDS-UPDRS - Rigidity Right Upper Extremity</nciodm:PreferredTerm>
        </EnumeratedItem>
        <EnumeratedItem CodedValue="UPD2-Rigidity Left Upper Extremity" nciodm:ExtCodeID="C100506">
          <nciodm:CDISCSynonym>UPD2-Rigidity Left Upper Extremity</nciodm:CDISCSynonym>
          <nciodm:CDISCDefinition>The Movement Disorder Society version of the Unified Parkinson's Disease Rating Scale - Rigidity Left Upper Extremity.</nciodm:CDISCDefinition>
          <nciodm:PreferredTerm>MDS-UPDRS - Rigidity Left Upper Extremity</nciodm:PreferredTerm>
        </EnumeratedItem>
        <EnumeratedItem CodedValue="UPD2-Rigidity RT Lower Extremity" nciodm:ExtCodeID="C100507">
          <nciodm:CDISCSynonym>UPD2-Rigidity RT Lower Extremity</nciodm:CDISCSynonym>
          <nciodm:CDISCDefinition>The Movement Disorder Society version of the Unified Parkinson's Disease Rating Scale - Rigidity Right Lower Extremity.</nciodm:CDISCDefinition>
          <nciodm:PreferredTerm>MDS-UPDRS - Rigidity Right Lower Extremity</nciodm:PreferredTerm>
        </EnumeratedItem>
        <EnumeratedItem CodedValue="UPD2-Rigidity Left Lower Extremity" nciodm:ExtCodeID="C100508">
          <nciodm:CDISCSynonym>UPD2-Rigidity Left Lower Extremity</nciodm:CDISCSynonym>
          <nciodm:CDISCDefinition>The Movement Disorder Society version of the Unified Parkinson's Disease Rating Scale - Rigidity Left Lower Extremity.</nciodm:CDISCDefinition>
          <nciodm:PreferredTerm>MDS-UPDRS - Rigidity Left Lower Extremity</nciodm:PreferredTerm>
        </EnumeratedItem>
        <EnumeratedItem CodedValue="UPD2-Right Finger Tapping" nciodm:ExtCodeID="C100509">
          <nciodm:CDISCSynonym>UPD2-Right Finger Tapping</nciodm:CDISCSynonym>
          <nciodm:CDISCDefinition>The Movement Disorder Society version of the Unified Parkinson's Disease Rating Scale - Right Finger Tapping.</nciodm:CDISCDefinition>
          <nciodm:PreferredTerm>MDS-UPDRS - Right Finger Tapping</nciodm:PreferredTerm>
        </EnumeratedItem>
        <EnumeratedItem CodedValue="UPD2-Left Finger Tapping" nciodm:ExtCodeID="C100510">
          <nciodm:CDISCSynonym>UPD2-Left Finger Tapping</nciodm:CDISCSynonym>
          <nciodm:CDISCDefinition>The Movement Disorder Society version of the Unified Parkinson's Disease Rating Scale - Left Finger Tapping.</nciodm:CDISCDefinition>
          <nciodm:PreferredTerm>MDS-UPDRS - Left Finger Tapping</nciodm:PreferredTerm>
        </EnumeratedItem>
        <EnumeratedItem CodedValue="UPD2-Right Hand Movements" nciodm:ExtCodeID="C100511">
          <nciodm:CDISCSynonym>UPD2-Right Hand Movements</nciodm:CDISCSynonym>
          <nciodm:CDISCDefinition>The Movement Disorder Society version of the Unified Parkinson's Disease Rating Scale - Right Hand Movements.</nciodm:CDISCDefinition>
          <nciodm:PreferredTerm>MDS-UPDRS - Right Hand Movements</nciodm:PreferredTerm>
        </EnumeratedItem>
        <EnumeratedItem CodedValue="UPD2-Left Hand Movements" nciodm:ExtCodeID="C100512">
          <nciodm:CDISCSynonym>UPD2-Left Hand Movements</nciodm:CDISCSynonym>
          <nciodm:CDISCDefinition>The Movement Disorder Society version of the Unified Parkinson's Disease Rating Scale - Left Hand Movements.</nciodm:CDISCDefinition>
          <nciodm:PreferredTerm>MDS-UPDRS - Left Hand Movements</nciodm:PreferredTerm>
        </EnumeratedItem>
        <EnumeratedItem CodedValue="UPD2-Pron/Sup Movement of RT Hand" nciodm:ExtCodeID="C100513">
          <nciodm:CDISCSynonym>UPD2-Pron/Sup Movement of RT Hand</nciodm:CDISCSynonym>
          <nciodm:CDISCDefinition>The Movement Disorder Society version of the Unified Parkinson's Disease Rating Scale - Pronation-Supination Movements of Right Hand.</nciodm:CDISCDefinition>
          <nciodm:PreferredTerm>MDS-UPDRS - Pronanation-Supination Movement of Right Hand</nciodm:PreferredTerm>
        </EnumeratedItem>
        <EnumeratedItem CodedValue="UPD2-Pron/Sup Movement of Left Hand" nciodm:ExtCodeID="C100514">
          <nciodm:CDISCSynonym>UPD2-Pron/Sup Movement of Left Hand</nciodm:CDISCSynonym>
          <nciodm:CDISCDefinition>The Movement Disorder Society version of the Unified Parkinson's Disease Rating Scale - Pronation-Supination Movements of Left Hand.</nciodm:CDISCDefinition>
          <nciodm:PreferredTerm>MDS-UPDRS - Pronanation-Supination Movement of Left Hand</nciodm:PreferredTerm>
        </EnumeratedItem>
        <EnumeratedItem CodedValue="UPD2-Right Toe Tapping" nciodm:ExtCodeID="C100515">
          <nciodm:CDISCSynonym>UPD2-Right Toe Tapping</nciodm:CDISCSynonym>
          <nciodm:CDISCDefinition>The Movement Disorder Society version of the Unified Parkinson's Disease Rating Scale - Right Toe Tapping.</nciodm:CDISCDefinition>
          <nciodm:PreferredTerm>MDS-UPDRS - Right Toe Tapping</nciodm:PreferredTerm>
        </EnumeratedItem>
        <EnumeratedItem CodedValue="UPD2-Left Toe Tapping" nciodm:ExtCodeID="C100516">
          <nciodm:CDISCSynonym>UPD2-Left Toe Tapping</nciodm:CDISCSynonym>
          <nciodm:CDISCDefinition>The Movement Disorder Society version of the Unified Parkinson's Disease Rating Scale - Left Toe Tapping.</nciodm:CDISCDefinition>
          <nciodm:PreferredTerm>MDS-UPDRS - Left Toe Tapping</nciodm:PreferredTerm>
        </EnumeratedItem>
        <EnumeratedItem CodedValue="UPD2-Right Leg Agility" nciodm:ExtCodeID="C100517">
          <nciodm:CDISCSynonym>UPD2-Right Leg Agility</nciodm:CDISCSynonym>
          <nciodm:CDISCDefinition>The Movement Disorder Society version of the Unified Parkinson's Disease Rating Scale - Right Leg Agility.</nciodm:CDISCDefinition>
          <nciodm:PreferredTerm>MDS-UPDRS - Right Leg Agility</nciodm:PreferredTerm>
        </EnumeratedItem>
        <EnumeratedItem CodedValue="UPD2-Left Leg Agility" nciodm:ExtCodeID="C100518">
          <nciodm:CDISCSynonym>UPD2-Left Leg Agility</nciodm:CDISCSynonym>
          <nciodm:CDISCDefinition>The Movement Disorder Society version of the Unified Parkinson's Disease Rating Scale - Left Leg Agility.</nciodm:CDISCDefinition>
          <nciodm:PreferredTerm>MDS-UPDRS - Left Leg Agility</nciodm:PreferredTerm>
        </EnumeratedItem>
        <EnumeratedItem CodedValue="UPD2-Arising from Chair" nciodm:ExtCodeID="C100519">
          <nciodm:CDISCSynonym>UPD2-Arising from Chair</nciodm:CDISCSynonym>
          <nciodm:CDISCDefinition>The Movement Disorder Society version of the Unified Parkinson's Disease Rating Scale - Arising from Chair.</nciodm:CDISCDefinition>
          <nciodm:PreferredTerm>MDS-UPDRS - Arising from Chair</nciodm:PreferredTerm>
        </EnumeratedItem>
        <EnumeratedItem CodedValue="UPD2-Gait" nciodm:ExtCodeID="C100520">
          <nciodm:CDISCSynonym>UPD2-Gait</nciodm:CDISCSynonym>
          <nciodm:CDISCDefinition>The Movement Disorder Society version of the Unified Parkinson's Disease Rating Scale - Gait.</nciodm:CDISCDefinition>
          <nciodm:PreferredTerm>MDS-UPDRS - Gait</nciodm:PreferredTerm>
        </EnumeratedItem>
        <EnumeratedItem CodedValue="UPD2-Freezing of Gait" nciodm:ExtCodeID="C100521">
          <nciodm:CDISCSynonym>UPD2-Freezing of Gait</nciodm:CDISCSynonym>
          <nciodm:CDISCDefinition>The Movement Disorder Society version of the Unified Parkinson's Disease Rating Scale - Freezing of Gait.</nciodm:CDISCDefinition>
          <nciodm:PreferredTerm>MDS-UPDRS - Freezing of Gait</nciodm:PreferredTerm>
        </EnumeratedItem>
        <EnumeratedItem CodedValue="UPD2-Postural Stability" nciodm:ExtCodeID="C100522">
          <nciodm:CDISCSynonym>UPD2-Postural Stability</nciodm:CDISCSynonym>
          <nciodm:CDISCDefinition>The Movement Disorder Society version of the Unified Parkinson's Disease Rating Scale - Postural Stability.</nciodm:CDISCDefinition>
          <nciodm:PreferredTerm>MDS-UPDRS - Postural Stability</nciodm:PreferredTerm>
        </EnumeratedItem>
        <EnumeratedItem CodedValue="UPD2-Posture" nciodm:ExtCodeID="C100523">
          <nciodm:CDISCSynonym>UPD2-Posture</nciodm:CDISCSynonym>
          <nciodm:CDISCDefinition>The Movement Disorder Society version of the Unified Parkinson's Disease Rating Scale - Posture.</nciodm:CDISCDefinition>
          <nciodm:PreferredTerm>MDS-UPDRS - Posture</nciodm:PreferredTerm>
        </EnumeratedItem>
        <EnumeratedItem CodedValue="UPD2-Body Bradykinesia" nciodm:ExtCodeID="C100524">
          <nciodm:CDISCSynonym>UPD2-Body Bradykinesia</nciodm:CDISCSynonym>
          <nciodm:CDISCDefinition>The Movement Disorder Society version of the Unified Parkinson's Disease Rating Scale - Global Spontaneity of Movement (Body Bradykinesia).</nciodm:CDISCDefinition>
          <nciodm:PreferredTerm>MDS-UPDRS - Body Bradykinesia</nciodm:PreferredTerm>
        </EnumeratedItem>
        <EnumeratedItem CodedValue="UPD2-Postural Tremor of Right Hand" nciodm:ExtCodeID="C100525">
          <nciodm:CDISCSynonym>UPD2-Postural Tremor of Right Hand</nciodm:CDISCSynonym>
          <nciodm:CDISCDefinition>The Movement Disorder Society version of the Unified Parkinson's Disease Rating Scale - Postural Tremor of the Right Hand.</nciodm:CDISCDefinition>
          <nciodm:PreferredTerm>MDS-UPDRS - Postural Tremor of Right Hand</nciodm:PreferredTerm>
        </EnumeratedItem>
        <EnumeratedItem CodedValue="UPD2-Kinetic Tremor of Left Hand" nciodm:ExtCodeID="C100526">
          <nciodm:CDISCSynonym>UPD2-Kinetic Tremor of Left Hand</nciodm:CDISCSynonym>
          <nciodm:CDISCDefinition>The Movement Disorder Society version of the Unified Parkinson's Disease Rating Scale - Kinetic Tremor of the Left Hand.</nciodm:CDISCDefinition>
          <nciodm:PreferredTerm>MDS-UPDRS - Kinetic Tremor of Left Hand</nciodm:PreferredTerm>
        </EnumeratedItem>
        <EnumeratedItem CodedValue="UPD2-Rest Tremor Amplitude RUE" nciodm:ExtCodeID="C100527">
          <nciodm:CDISCSynonym>UPD2-Rest Tremor Amplitude RUE</nciodm:CDISCSynonym>
          <nciodm:CDISCDefinition>The Movement Disorder Society version of the Unified Parkinson's Disease Rating Scale - Rest Tremor Amplitude Right Upper Extremity.</nciodm:CDISCDefinition>
          <nciodm:PreferredTerm>MDS-UPDRS - Rest Tremor Amplitude Right Upper Extremity</nciodm:PreferredTerm>
        </EnumeratedItem>
        <EnumeratedItem CodedValue="UPD2-Rest Tremor Amplitude LUE" nciodm:ExtCodeID="C100528">
          <nciodm:CDISCSynonym>UPD2-Rest Tremor Amplitude LUE</nciodm:CDISCSynonym>
          <nciodm:CDISCDefinition>The Movement Disorder Society version of the Unified Parkinson's Disease Rating Scale - Rest Tremor Amplitude Left Upper Extremity.</nciodm:CDISCDefinition>
          <nciodm:PreferredTerm>MDS-UPDRS - Rest Tremor Amplitude Left Upper Extremity</nciodm:PreferredTerm>
        </EnumeratedItem>
        <EnumeratedItem CodedValue="UPD2-Rest Tremor Amplitude RLE" nciodm:ExtCodeID="C100529">
          <nciodm:CDISCSynonym>UPD2-Rest Tremor Amplitude RLE</nciodm:CDISCSynonym>
          <nciodm:CDISCDefinition>The Movement Disorder Society version of the Unified Parkinson's Disease Rating Scale - Rest Tremor Amplitude Right Lower Extremity.</nciodm:CDISCDefinition>
          <nciodm:PreferredTerm>MDS-UPDRS - Rest Tremor Amplitude Right Lower Extremity</nciodm:PreferredTerm>
        </EnumeratedItem>
        <EnumeratedItem CodedValue="UPD2-Rest Tremor Amplitude LLE" nciodm:ExtCodeID="C100530">
          <nciodm:CDISCSynonym>UPD2-Rest Tremor Amplitude LLE</nciodm:CDISCSynonym>
          <nciodm:CDISCDefinition>The Movement Disorder Society version of the Unified Parkinson's Disease Rating Scale - Rest Tremor Amplitude Left Lower Extremity.</nciodm:CDISCDefinition>
          <nciodm:PreferredTerm>MDS-UPDRS - Rest Tremor Amplitude Left Lower Extremity</nciodm:PreferredTerm>
        </EnumeratedItem>
        <EnumeratedItem CodedValue="UPD2-Rest Tremor Amplitude Lip/Jaw" nciodm:ExtCodeID="C100531">
          <nciodm:CDISCSynonym>UPD2-Rest Tremor Amplitude Lip/Jaw</nciodm:CDISCSynonym>
          <nciodm:CDISCDefinition>The Movement Disorder Society version of the Unified Parkinson's Disease Rating Scale - Rest Tremor Amplitude Lip/Jaw.</nciodm:CDISCDefinition>
          <nciodm:PreferredTerm>MDS-UPDRS - Rest Tremor Amplitude Lip or Jaw</nciodm:PreferredTerm>
        </EnumeratedItem>
        <EnumeratedItem CodedValue="UPD2-Consistency of Rest Tremor" nciodm:ExtCodeID="C100532">
          <nciodm:CDISCSynonym>UPD2-Consistency of Rest Tremor</nciodm:CDISCSynonym>
          <nciodm:CDISCDefinition>The Movement Disorder Society version of the Unified Parkinson's Disease Rating Scale - Consistency of Rest Tremor.</nciodm:CDISCDefinition>
          <nciodm:PreferredTerm>MDS-UPDRS - Consistency of Rest Tremor</nciodm:PreferredTerm>
        </EnumeratedItem>
        <EnumeratedItem CodedValue="UPD2-Dyskinesias During Exam" nciodm:ExtCodeID="C100533">
          <nciodm:CDISCSynonym>UPD2-Dyskinesias During Exam</nciodm:CDISCSynonym>
