<?xml version="1.0" encoding="UTF-8"?>
<!-- Produced from SAS data using SAS Clinical Standards Toolkit -->
<ODM
xmlns="http://www.cdisc.org/ns/odm/v1.3"
xmlns:data="http://www.cdisc.org/ns/Dataset-XML/v1.0"
ODMVersion="1.3.2"
FileType="Snapshot"
FileOID="cdisc01.DM"
PriorFileOID="www.cdisc.org.Studycdisc01-Define-XML_2.0.0"
CreationDateTime="2022-05-31T16:59:23"
data:DatasetXMLVersion="1.0.0">
<ClinicalData StudyOID="cdisc01" MetaDataVersionOID="MDV.CDISC01.SDTMIG.3.1.2.SDTM.1.2">
<ItemGroupData ItemGroupOID="IG.DM" data:ItemGroupDataSeq="1">
<ItemData ItemOID="IT.STUDYID" Value="CDISC01"/>
<ItemData ItemOID="IT.DM.DOMAIN" Value="DM"/>
<ItemData ItemOID="IT.USUBJID" Value="CDISC01.100008"/>
<ItemData ItemOID="IT.DM.SUBJID" Value="100008"/>
<ItemData ItemOID="IT.DM.RFSTDTC" Value="2003-04-29"/>
<ItemData ItemOID="IT.DM.RFENDTC" Value="2003-10-12"/>
<ItemData ItemOID="IT.DM.SITEID" Value="100"/>
<ItemData ItemOID="IT.DM.BRTHDTC" Value="1930-08-05"/>
<ItemData ItemOID="IT.DM.AGE" Value="72"/>
<ItemData ItemOID="IT.DM.AGEU" Value="YEARS"/>
<ItemData ItemOID="IT.DM.SEX" Value="M"/>
<ItemData ItemOID="IT.DM.RACE" Value="OTHER"/>
<ItemData ItemOID="IT.DM.ETHNIC" Value="NOT HISPANIC OR LATINO"/>
<ItemData ItemOID="IT.DM.ARMCD" Value="WONDER10"/>
<ItemData ItemOID="IT.DM.ARM" Value="Miracle Drug 10 mg"/>
<ItemData ItemOID="IT.DM.COUNTRY" Value="USA"/>
</ItemGroupData>
<ItemGroupData ItemGroupOID="IG.DM" data:ItemGroupDataSeq="2">
<ItemData ItemOID="IT.STUDYID" Value="CDISC01"/>
<ItemData ItemOID="IT.DM.DOMAIN" Value="DM"/>
<ItemData ItemOID="IT.USUBJID" Value="CDISC01.100014"/>
<ItemData ItemOID="IT.DM.SUBJID" Value="100014"/>
<ItemData ItemOID="IT.DM.RFSTDTC" Value="2003-10-15"/>
<ItemData ItemOID="IT.DM.RFENDTC" Value="2004-03-29"/>
<ItemData ItemOID="IT.DM.SITEID" Value="100"/>
<ItemData ItemOID="IT.DM.BRTHDTC" Value="1936-11-01"/>
<ItemData ItemOID="IT.DM.AGE" Value="66"/>
<ItemData ItemOID="IT.DM.AGEU" Value="YEARS"/>
<ItemData ItemOID="IT.DM.SEX" Value="F"/>
<ItemData ItemOID="IT.DM.RACE" Value="WHITE"/>
<ItemData ItemOID="IT.DM.ETHNIC" Value="NOT HISPANIC OR LATINO"/>
<ItemData ItemOID="IT.DM.ARMCD" Value="WONDER20"/>
<ItemData ItemOID="IT.DM.ARM" Value="Miracle Drug 20 mg"/>
<ItemData ItemOID="IT.DM.COUNTRY" Value="USA"/>
</ItemGroupData>
<ItemGroupData ItemGroupOID="IG.DM" data:ItemGroupDataSeq="3">
<ItemData ItemOID="IT.STUDYID" Value="CDISC01"/>
<ItemData ItemOID="IT.DM.DOMAIN" Value="DM"/>
<ItemData ItemOID="IT.USUBJID" Value="CDISC01.200001"/>
<ItemData ItemOID="IT.DM.SUBJID" Value="200001"/>
<ItemData ItemOID="IT.DM.RFSTDTC" Value="2003-09-30"/>
<ItemData ItemOID="IT.DM.RFENDTC" Value="2004-02-02"/>
<ItemData ItemOID="IT.DM.SITEID" Value="200"/>
<ItemData ItemOID="IT.DM.BRTHDTC" Value="1923-09-03"/>
<ItemData ItemOID="IT.DM.AGE" Value="80"/>
<ItemData ItemOID="IT.DM.AGEU" Value="YEARS"/>
<ItemData ItemOID="IT.DM.SEX" Value="F"/>
<ItemData ItemOID="IT.DM.RACE" Value="MULTIPLE"/>
<ItemData ItemOID="IT.DM.ETHNIC" Value="NOT HISPANIC OR LATINO"/>
<ItemData ItemOID="IT.DM.ARMCD" Value="PLACEBO"/>
<ItemData ItemOID="IT.DM.ARM" Value="Placebo"/>
<ItemData ItemOID="IT.DM.COUNTRY" Value="USA"/>
</ItemGroupData>
<ItemGroupData ItemGroupOID="IG.DM" data:ItemGroupDataSeq="4">
<ItemData ItemOID="IT.STUDYID" Value="CDISC01"/>
<ItemData ItemOID="IT.DM.DOMAIN" Value="DM"/>
<ItemData ItemOID="IT.USUBJID" Value="CDISC01.200002"/>
<ItemData ItemOID="IT.DM.SUBJID" Value="200002"/>
<ItemData ItemOID="IT.DM.RFSTDTC" Value="2003-10-10"/>
<ItemData ItemOID="IT.DM.RFENDTC" Value="2004-03-28"/>
<ItemData ItemOID="IT.DM.SITEID" Value="200"/>
<ItemData ItemOID="IT.DM.BRTHDTC" Value="1933-07-22"/>
<ItemData ItemOID="IT.DM.AGE" Value="70"/>
<ItemData ItemOID="IT.DM.AGEU" Value="YEARS"/>
<ItemData ItemOID="IT.DM.SEX" Value="F"/>
<ItemData ItemOID="IT.DM.RACE" Value="BLACK OR AFRICAN AMERICAN"/>
<ItemData ItemOID="IT.DM.ETHNIC" Value="NOT HISPANIC OR LATINO"/>
<ItemData ItemOID="IT.DM.ARMCD" Value="WONDER10"/>
<ItemData ItemOID="IT.DM.ARM" Value="Miracle Drug 10 mg"/>
<ItemData ItemOID="IT.DM.COUNTRY" Value="USA"/>
</ItemGroupData>
<ItemGroupData ItemGroupOID="IG.DM" data:ItemGroupDataSeq="5">
<ItemData ItemOID="IT.STUDYID" Value="CDISC01"/>
<ItemData ItemOID="IT.DM.DOMAIN" Value="DM"/>
<ItemData ItemOID="IT.USUBJID" Value="CDISC01.200005"/>
<ItemData ItemOID="IT.DM.SUBJID" Value="200005"/>
<ItemData ItemOID="IT.DM.SITEID" Value="200"/>
<ItemData ItemOID="IT.DM.BRTHDTC" Value="1937-02-22"/>
<ItemData ItemOID="IT.DM.AGE" Value="66"/>
<ItemData ItemOID="IT.DM.AGEU" Value="YEARS"/>
<ItemData ItemOID="IT.DM.SEX" Value="F"/>
<ItemData ItemOID="IT.DM.RACE" Value="WHITE"/>
<ItemData ItemOID="IT.DM.ETHNIC" Value="NOT HISPANIC OR LATINO"/>
<ItemData ItemOID="IT.DM.ARMCD" Value="SCRNFAIL"/>
<ItemData ItemOID="IT.DM.ARM" Value="Screen Failure"/>
<ItemData ItemOID="IT.DM.COUNTRY" Value="USA"/>
</ItemGroupData>
</ClinicalData>
</ODM>
