<?xml version="1.0" encoding="UTF-8"?>
<!-- Produced from SAS data using SAS Clinical Standards Toolkit -->
<ODM
xmlns="http://www.cdisc.org/ns/odm/v1.3"
xmlns:data="http://www.cdisc.org/ns/Dataset-XML/v1.0"
ODMVersion="1.3.2"
FileType="Snapshot"
FileOID="cdisc01.EX"
PriorFileOID="www.cdisc.org.Studycdisc01-Define-XML_2.0.0"
CreationDateTime="2022-05-31T16:59:24"
data:DatasetXMLVersion="1.0.0">
<ClinicalData StudyOID="cdisc01" MetaDataVersionOID="MDV.CDISC01.SDTMIG.3.1.2.SDTM.1.2">
<ItemGroupData ItemGroupOID="IG.EX" data:ItemGroupDataSeq="1">
<ItemData ItemOID="IT.STUDYID" Value="CDISC01"/>
<ItemData ItemOID="IT.EX.DOMAIN" Value="EX"/>
<ItemData ItemOID="IT.USUBJID" Value="CDISC01.100008"/>
<ItemData ItemOID="IT.EX.EXSEQ" Value="1"/>
<ItemData ItemOID="IT.EX.EXTRT" Value="Miracle Drug"/>
<ItemData ItemOID="IT.EX.EXDOSE" Value="10"/>
<ItemData ItemOID="IT.EX.EXDOSU" Value="mg"/>
<ItemData ItemOID="IT.EX.EXDOSFRM" Value="TABLET"/>
<ItemData ItemOID="IT.EX.EXSTDTC" Value="2003-04-29"/>
<ItemData ItemOID="IT.EX.EXENDTC" Value="2003-05-05"/>
<ItemData ItemOID="IT.EX.EXSTDY" Value="1"/>
<ItemData ItemOID="IT.EX.EXENDY" Value="7"/>
</ItemGroupData>
<ItemGroupData ItemGroupOID="IG.EX" data:ItemGroupDataSeq="2">
<ItemData ItemOID="IT.STUDYID" Value="CDISC01"/>
<ItemData ItemOID="IT.EX.DOMAIN" Value="EX"/>
<ItemData ItemOID="IT.USUBJID" Value="CDISC01.100008"/>
<ItemData ItemOID="IT.EX.EXSEQ" Value="2"/>
<ItemData ItemOID="IT.EX.EXTRT" Value="Miracle Drug"/>
<ItemData ItemOID="IT.EX.EXDOSE" Value="20"/>
<ItemData ItemOID="IT.EX.EXDOSU" Value="mg"/>
<ItemData ItemOID="IT.EX.EXDOSFRM" Value="TABLET"/>
<ItemData ItemOID="IT.EX.EXSTDTC" Value="2003-05-06"/>
<ItemData ItemOID="IT.EX.EXENDTC" Value="2003-05-12"/>
<ItemData ItemOID="IT.EX.EXSTDY" Value="8"/>
<ItemData ItemOID="IT.EX.EXENDY" Value="14"/>
</ItemGroupData>
<ItemGroupData ItemGroupOID="IG.EX" data:ItemGroupDataSeq="3">
<ItemData ItemOID="IT.STUDYID" Value="CDISC01"/>
<ItemData ItemOID="IT.EX.DOMAIN" Value="EX"/>
<ItemData ItemOID="IT.USUBJID" Value="CDISC01.100008"/>
<ItemData ItemOID="IT.EX.EXSEQ" Value="3"/>
<ItemData ItemOID="IT.EX.EXTRT" Value="Miracle Drug"/>
<ItemData ItemOID="IT.EX.EXDOSE" Value="30"/>
<ItemData ItemOID="IT.EX.EXDOSU" Value="mg"/>
<ItemData ItemOID="IT.EX.EXDOSFRM" Value="TABLET"/>
<ItemData ItemOID="IT.EX.EXSTDTC" Value="2003-05-13"/>
<ItemData ItemOID="IT.EX.EXENDTC" Value="2003-05-19"/>
<ItemData ItemOID="IT.EX.EXSTDY" Value="15"/>
<ItemData ItemOID="IT.EX.EXENDY" Value="21"/>
</ItemGroupData>
<ItemGroupData ItemGroupOID="IG.EX" data:ItemGroupDataSeq="4">
<ItemData ItemOID="IT.STUDYID" Value="CDISC01"/>
<ItemData ItemOID="IT.EX.DOMAIN" Value="EX"/>
<ItemData ItemOID="IT.USUBJID" Value="CDISC01.100008"/>
<ItemData ItemOID="IT.EX.EXSEQ" Value="4"/>
<ItemData ItemOID="IT.EX.EXTRT" Value="Miracle Drug"/>
<ItemData ItemOID="IT.EX.EXDOSE" Value="40"/>
<ItemData ItemOID="IT.EX.EXDOSU" Value="mg"/>
<ItemData ItemOID="IT.EX.EXDOSFRM" Value="TABLET"/>
<ItemData ItemOID="IT.EX.EXSTDTC" Value="2003-05-20"/>
<ItemData ItemOID="IT.EX.EXENDTC" Value="2003-05-27"/>
<ItemData ItemOID="IT.EX.EXSTDY" Value="22"/>
<ItemData ItemOID="IT.EX.EXENDY" Value="29"/>
</ItemGroupData>
<ItemGroupData ItemGroupOID="IG.EX" data:ItemGroupDataSeq="5">
<ItemData ItemOID="IT.STUDYID" Value="CDISC01"/>
<ItemData ItemOID="IT.EX.DOMAIN" Value="EX"/>
<ItemData ItemOID="IT.USUBJID" Value="CDISC01.100014"/>
<ItemData ItemOID="IT.EX.EXSEQ" Value="1"/>
<ItemData ItemOID="IT.EX.EXTRT" Value="Miracle Drug"/>
<ItemData ItemOID="IT.EX.EXDOSE" Value="20"/>
<ItemData ItemOID="IT.EX.EXDOSU" Value="mg"/>
<ItemData ItemOID="IT.EX.EXDOSFRM" Value="TABLET"/>
<ItemData ItemOID="IT.EX.EXSTDTC" Value="2003-10-15"/>
<ItemData ItemOID="IT.EX.EXENDTC" Value="2003-10-21"/>
<ItemData ItemOID="IT.EX.EXSTDY" Value="1"/>
<ItemData ItemOID="IT.EX.EXENDY" Value="7"/>
</ItemGroupData>
<ItemGroupData ItemGroupOID="IG.EX" data:ItemGroupDataSeq="6">
<ItemData ItemOID="IT.STUDYID" Value="CDISC01"/>
<ItemData ItemOID="IT.EX.DOMAIN" Value="EX"/>
<ItemData ItemOID="IT.USUBJID" Value="CDISC01.100014"/>
<ItemData ItemOID="IT.EX.EXSEQ" Value="2"/>
<ItemData ItemOID="IT.EX.EXTRT" Value="Miracle Drug"/>
<ItemData ItemOID="IT.EX.EXDOSE" Value="40"/>
<ItemData ItemOID="IT.EX.EXDOSU" Value="mg"/>
<ItemData ItemOID="IT.EX.EXDOSFRM" Value="TABLET"/>
<ItemData ItemOID="IT.EX.EXSTDTC" Value="2003-10-22"/>
<ItemData ItemOID="IT.EX.EXENDTC" Value="2003-10-30"/>
<ItemData ItemOID="IT.EX.EXSTDY" Value="8"/>
<ItemData ItemOID="IT.EX.EXENDY" Value="16"/>
</ItemGroupData>
<ItemGroupData ItemGroupOID="IG.EX" data:ItemGroupDataSeq="7">
<ItemData ItemOID="IT.STUDYID" Value="CDISC01"/>
<ItemData ItemOID="IT.EX.DOMAIN" Value="EX"/>
<ItemData ItemOID="IT.USUBJID" Value="CDISC01.100014"/>
<ItemData ItemOID="IT.EX.EXSEQ" Value="3"/>
<ItemData ItemOID="IT.EX.EXTRT" Value="Miracle Drug"/>
<ItemData ItemOID="IT.EX.EXDOSE" Value="60"/>
<ItemData ItemOID="IT.EX.EXDOSU" Value="mg"/>
<ItemData ItemOID="IT.EX.EXDOSFRM" Value="TABLET"/>
<ItemData ItemOID="IT.EX.EXSTDTC" Value="2003-10-31"/>
<ItemData ItemOID="IT.EX.EXENDTC" Value="2003-11-11"/>
<ItemData ItemOID="IT.EX.EXSTDY" Value="17"/>
<ItemData ItemOID="IT.EX.EXENDY" Value="28"/>
</ItemGroupData>
<ItemGroupData ItemGroupOID="IG.EX" data:ItemGroupDataSeq="8">
<ItemData ItemOID="IT.STUDYID" Value="CDISC01"/>
<ItemData ItemOID="IT.EX.DOMAIN" Value="EX"/>
<ItemData ItemOID="IT.USUBJID" Value="CDISC01.200001"/>
<ItemData ItemOID="IT.EX.EXSEQ" Value="1"/>
<ItemData ItemOID="IT.EX.EXTRT" Value="Placebo"/>
<ItemData ItemOID="IT.EX.EXDOSE" Value="0"/>
<ItemData ItemOID="IT.EX.EXDOSU" Value="mg"/>
<ItemData ItemOID="IT.EX.EXDOSFRM" Value="TABLET"/>
<ItemData ItemOID="IT.EX.EXSTDTC" Value="2003-09-30"/>
<ItemData ItemOID="IT.EX.EXENDTC" Value="2003-10-06"/>
<ItemData ItemOID="IT.EX.EXSTDY" Value="1"/>
<ItemData ItemOID="IT.EX.EXENDY" Value="7"/>
</ItemGroupData>
<ItemGroupData ItemGroupOID="IG.EX" data:ItemGroupDataSeq="9">
<ItemData ItemOID="IT.STUDYID" Value="CDISC01"/>
<ItemData ItemOID="IT.EX.DOMAIN" Value="EX"/>
<ItemData ItemOID="IT.USUBJID" Value="CDISC01.200001"/>
<ItemData ItemOID="IT.EX.EXSEQ" Value="2"/>
<ItemData ItemOID="IT.EX.EXTRT" Value="Placebo"/>
<ItemData ItemOID="IT.EX.EXDOSE" Value="0"/>
<ItemData ItemOID="IT.EX.EXDOSU" Value="mg"/>
<ItemData ItemOID="IT.EX.EXDOSFRM" Value="TABLET"/>
<ItemData ItemOID="IT.EX.EXSTDTC" Value="2003-10-07"/>
<ItemData ItemOID="IT.EX.EXENDTC" Value="2003-10-13"/>
<ItemData ItemOID="IT.EX.EXSTDY" Value="8"/>
<ItemData ItemOID="IT.EX.EXENDY" Value="14"/>
</ItemGroupData>
<ItemGroupData ItemGroupOID="IG.EX" data:ItemGroupDataSeq="10">
<ItemData ItemOID="IT.STUDYID" Value="CDISC01"/>
<ItemData ItemOID="IT.EX.DOMAIN" Value="EX"/>
<ItemData ItemOID="IT.USUBJID" Value="CDISC01.200001"/>
<ItemData ItemOID="IT.EX.EXSEQ" Value="3"/>
<ItemData ItemOID="IT.EX.EXTRT" Value="Placebo"/>
<ItemData ItemOID="IT.EX.EXDOSE" Value="0"/>
<ItemData ItemOID="IT.EX.EXDOSU" Value="mg"/>
<ItemData ItemOID="IT.EX.EXDOSFRM" Value="TABLET"/>
<ItemData ItemOID="IT.EX.EXSTDTC" Value="2003-10-14"/>
<ItemData ItemOID="IT.EX.EXENDTC" Value="2003-10-20"/>
<ItemData ItemOID="IT.EX.EXSTDY" Value="15"/>
<ItemData ItemOID="IT.EX.EXENDY" Value="21"/>
</ItemGroupData>
<ItemGroupData ItemGroupOID="IG.EX" data:ItemGroupDataSeq="11">
<ItemData ItemOID="IT.STUDYID" Value="CDISC01"/>
<ItemData ItemOID="IT.EX.DOMAIN" Value="EX"/>
<ItemData ItemOID="IT.USUBJID" Value="CDISC01.200001"/>
<ItemData ItemOID="IT.EX.EXSEQ" Value="4"/>
<ItemData ItemOID="IT.EX.EXTRT" Value="Placebo"/>
<ItemData ItemOID="IT.EX.EXDOSE" Value="0"/>
<ItemData ItemOID="IT.EX.EXDOSU" Value="mg"/>
<ItemData ItemOID="IT.EX.EXDOSFRM" Value="TABLET"/>
<ItemData ItemOID="IT.EX.EXSTDTC" Value="2003-10-21"/>
<ItemData ItemOID="IT.EX.EXENDTC" Value="2003-10-27"/>
<ItemData ItemOID="IT.EX.EXSTDY" Value="22"/>
<ItemData ItemOID="IT.EX.EXENDY" Value="28"/>
</ItemGroupData>
<ItemGroupData ItemGroupOID="IG.EX" data:ItemGroupDataSeq="12">
<ItemData ItemOID="IT.STUDYID" Value="CDISC01"/>
<ItemData ItemOID="IT.EX.DOMAIN" Value="EX"/>
<ItemData ItemOID="IT.USUBJID" Value="CDISC01.200002"/>
<ItemData ItemOID="IT.EX.EXSEQ" Value="1"/>
<ItemData ItemOID="IT.EX.EXTRT" Value="Miracle Drug"/>
<ItemData ItemOID="IT.EX.EXDOSE" Value="10"/>
<ItemData ItemOID="IT.EX.EXDOSU" Value="mg"/>
<ItemData ItemOID="IT.EX.EXDOSFRM" Value="TABLET"/>
<ItemData ItemOID="IT.EX.EXSTDTC" Value="2003-10-10"/>
<ItemData ItemOID="IT.EX.EXENDTC" Value="2003-10-16"/>
<ItemData ItemOID="IT.EX.EXSTDY" Value="1"/>
<ItemData ItemOID="IT.EX.EXENDY" Value="7"/>
</ItemGroupData>
<ItemGroupData ItemGroupOID="IG.EX" data:ItemGroupDataSeq="13">
<ItemData ItemOID="IT.STUDYID" Value="CDISC01"/>
<ItemData ItemOID="IT.EX.DOMAIN" Value="EX"/>
<ItemData ItemOID="IT.USUBJID" Value="CDISC01.200002"/>
<ItemData ItemOID="IT.EX.EXSEQ" Value="2"/>
<ItemData ItemOID="IT.EX.EXTRT" Value="Miracle Drug"/>
<ItemData ItemOID="IT.EX.EXDOSE" Value="0"/>
<ItemData ItemOID="IT.EX.EXDOSU" Value="mg"/>
<ItemData ItemOID="IT.EX.EXDOSFRM" Value="TABLET"/>
<ItemData ItemOID="IT.EX.EXSTDTC" Value="2003-10-17"/>
<ItemData ItemOID="IT.EX.EXENDTC" Value="2003-10-18"/>
<ItemData ItemOID="IT.EX.EXSTDY" Value="8"/>
<ItemData ItemOID="IT.EX.EXENDY" Value="9"/>
</ItemGroupData>
<ItemGroupData ItemGroupOID="IG.EX" data:ItemGroupDataSeq="14">
<ItemData ItemOID="IT.STUDYID" Value="CDISC01"/>
<ItemData ItemOID="IT.EX.DOMAIN" Value="EX"/>
<ItemData ItemOID="IT.USUBJID" Value="CDISC01.200002"/>
<ItemData ItemOID="IT.EX.EXSEQ" Value="3"/>
<ItemData ItemOID="IT.EX.EXTRT" Value="Miracle Drug"/>
<ItemData ItemOID="IT.EX.EXDOSE" Value="20"/>
<ItemData ItemOID="IT.EX.EXDOSU" Value="mg"/>
<ItemData ItemOID="IT.EX.EXDOSFRM" Value="TABLET"/>
<ItemData ItemOID="IT.EX.EXSTDTC" Value="2003-10-19"/>
<ItemData ItemOID="IT.EX.EXENDTC" Value="2003-10-23"/>
<ItemData ItemOID="IT.EX.EXSTDY" Value="10"/>
<ItemData ItemOID="IT.EX.EXENDY" Value="14"/>
</ItemGroupData>
<ItemGroupData ItemGroupOID="IG.EX" data:ItemGroupDataSeq="15">
<ItemData ItemOID="IT.STUDYID" Value="CDISC01"/>
<ItemData ItemOID="IT.EX.DOMAIN" Value="EX"/>
<ItemData ItemOID="IT.USUBJID" Value="CDISC01.200002"/>
<ItemData ItemOID="IT.EX.EXSEQ" Value="4"/>
<ItemData ItemOID="IT.EX.EXTRT" Value="Miracle Drug"/>
<ItemData ItemOID="IT.EX.EXDOSE" Value="30"/>
<ItemData ItemOID="IT.EX.EXDOSU" Value="mg"/>
<ItemData ItemOID="IT.EX.EXDOSFRM" Value="TABLET"/>
<ItemData ItemOID="IT.EX.EXSTDTC" Value="2003-10-24"/>
<ItemData ItemOID="IT.EX.EXENDTC" Value="2003-10-30"/>
<ItemData ItemOID="IT.EX.EXSTDY" Value="15"/>
<ItemData ItemOID="IT.EX.EXENDY" Value="21"/>
</ItemGroupData>
<ItemGroupData ItemGroupOID="IG.EX" data:ItemGroupDataSeq="16">
<ItemData ItemOID="IT.STUDYID" Value="CDISC01"/>
<ItemData ItemOID="IT.EX.DOMAIN" Value="EX"/>
<ItemData ItemOID="IT.USUBJID" Value="CDISC01.200002"/>
<ItemData ItemOID="IT.EX.EXSEQ" Value="5"/>
<ItemData ItemOID="IT.EX.EXTRT" Value="Miracle Drug"/>
<ItemData ItemOID="IT.EX.EXDOSE" Value="40"/>
<ItemData ItemOID="IT.EX.EXDOSU" Value="mg"/>
<ItemData ItemOID="IT.EX.EXDOSFRM" Value="TABLET"/>
<ItemData ItemOID="IT.EX.EXSTDTC" Value="2003-10-31"/>
<ItemData ItemOID="IT.EX.EXENDTC" Value="2003-11-05"/>
<ItemData ItemOID="IT.EX.EXSTDY" Value="22"/>
<ItemData ItemOID="IT.EX.EXENDY" Value="27"/>
</ItemGroupData>
<ItemGroupData ItemGroupOID="IG.EX" data:ItemGroupDataSeq="17">
<ItemData ItemOID="IT.STUDYID" Value="CDISC01"/>
<ItemData ItemOID="IT.EX.DOMAIN" Value="EX"/>
<ItemData ItemOID="IT.USUBJID" Value="CDISC01.200002"/>
<ItemData ItemOID="IT.EX.EXSEQ" Value="6"/>
<ItemData ItemOID="IT.EX.EXTRT" Value="Miracle Drug"/>
<ItemData ItemOID="IT.EX.EXDOSE" Value="0"/>
<ItemData ItemOID="IT.EX.EXDOSU" Value="mg"/>
<ItemData ItemOID="IT.EX.EXDOSFRM" Value="TABLET"/>
<ItemData ItemOID="IT.EX.EXSTDTC" Value="2003-11-06"/>
<ItemData ItemOID="IT.EX.EXENDTC" Value="2003-11-06"/>
<ItemData ItemOID="IT.EX.EXSTDY" Value="28"/>
<ItemData ItemOID="IT.EX.EXENDY" Value="28"/>
</ItemGroupData>
</ClinicalData>
</ODM>
