<?xml version="1.0" encoding="UTF-8"?>
<!-- Produced from SAS data using SAS Clinical Standards Toolkit -->
<ODM
xmlns="http://www.cdisc.org/ns/odm/v1.3"
xmlns:data="http://www.cdisc.org/ns/Dataset-XML/v1.0"
ODMVersion="1.3.2"
FileType="Snapshot"
FileOID="cdisc01.QSCS"
PriorFileOID="www.cdisc.org.Studycdisc01-Define-XML_2.0.0"
CreationDateTime="2022-05-31T16:59:24"
data:DatasetXMLVersion="1.0.0">
<ClinicalData StudyOID="cdisc01" MetaDataVersionOID="MDV.CDISC01.SDTMIG.3.1.2.SDTM.1.2">
<ItemGroupData ItemGroupOID="IG.QSCS" data:ItemGroupDataSeq="1">
<ItemData ItemOID="IT.STUDYID" Value="CDISC01"/>
<ItemData ItemOID="IT.QS.DOMAIN" Value="QS"/>
<ItemData ItemOID="IT.USUBJID" Value="CDISC01.100008"/>
<ItemData ItemOID="IT.QS.QSSEQ" Value="3"/>
<ItemData ItemOID="IT.QS.QSTESTCD" Value="CSDD01"/>
<ItemData ItemOID="IT.QS.QSTEST" Value="Anxiety"/>
<ItemData ItemOID="IT.QS.QSCAT" Value="CORNELL SCALE FOR DEPRESSION IN DEMENTIA (CSDD)"/>
<ItemData ItemOID="IT.QS.QSSCAT" Value="Mood - Related Signs"/>
<ItemData ItemOID="IT.QS.QSORRES" Value="Severe"/>
<ItemData ItemOID="IT.QS.QSSTRESC" Value="2"/>
<ItemData ItemOID="IT.QS.QSSTRESN" Value="2"/>
<ItemData ItemOID="IT.QS.VISITNUM" Value="1"/>
<ItemData ItemOID="IT.QS.VISIT" Value="SCREEN"/>
<ItemData ItemOID="IT.QS.VISITDY" Value="-13"/>
<ItemData ItemOID="IT.QS.QSDTC" Value="2003-04-15"/>
<ItemData ItemOID="IT.QS.QSDY" Value="-14"/>
<ItemData ItemOID="IT.QS.QSEVLINT" Value="-P1W"/>
</ItemGroupData>
<ItemGroupData ItemGroupOID="IG.QSCS" data:ItemGroupDataSeq="2">
<ItemData ItemOID="IT.STUDYID" Value="CDISC01"/>
<ItemData ItemOID="IT.QS.DOMAIN" Value="QS"/>
<ItemData ItemOID="IT.USUBJID" Value="CDISC01.100008"/>
<ItemData ItemOID="IT.QS.QSSEQ" Value="4"/>
<ItemData ItemOID="IT.QS.QSTESTCD" Value="CSDD01"/>
<ItemData ItemOID="IT.QS.QSTEST" Value="Anxiety"/>
<ItemData ItemOID="IT.QS.QSCAT" Value="CORNELL SCALE FOR DEPRESSION IN DEMENTIA (CSDD)"/>
<ItemData ItemOID="IT.QS.QSSCAT" Value="Mood - Related Signs"/>
<ItemData ItemOID="IT.QS.QSORRES" Value="Severe"/>
<ItemData ItemOID="IT.QS.QSSTRESC" Value="2"/>
<ItemData ItemOID="IT.QS.QSSTRESN" Value="2"/>
<ItemData ItemOID="IT.QS.QSBLFL" Value="Y"/>
<ItemData ItemOID="IT.QS.VISITNUM" Value="2"/>
<ItemData ItemOID="IT.QS.VISIT" Value="BASELINE"/>
<ItemData ItemOID="IT.QS.VISITDY" Value="1"/>
<ItemData ItemOID="IT.QS.QSDTC" Value="2003-04-29"/>
<ItemData ItemOID="IT.QS.QSDY" Value="1"/>
<ItemData ItemOID="IT.QS.QSEVLINT" Value="-P1W"/>
</ItemGroupData>
<ItemGroupData ItemGroupOID="IG.QSCS" data:ItemGroupDataSeq="3">
<ItemData ItemOID="IT.STUDYID" Value="CDISC01"/>
<ItemData ItemOID="IT.QS.DOMAIN" Value="QS"/>
<ItemData ItemOID="IT.USUBJID" Value="CDISC01.100008"/>
<ItemData ItemOID="IT.QS.QSSEQ" Value="5"/>
<ItemData ItemOID="IT.QS.QSTESTCD" Value="CSDD01"/>
<ItemData ItemOID="IT.QS.QSTEST" Value="Anxiety"/>
<ItemData ItemOID="IT.QS.QSCAT" Value="CORNELL SCALE FOR DEPRESSION IN DEMENTIA (CSDD)"/>
<ItemData ItemOID="IT.QS.QSSCAT" Value="Mood - Related Signs"/>
<ItemData ItemOID="IT.QS.QSORRES" Value="Mild or Intermittent"/>
<ItemData ItemOID="IT.QS.QSSTRESC" Value="1"/>
<ItemData ItemOID="IT.QS.QSSTRESN" Value="1"/>
<ItemData ItemOID="IT.QS.VISITNUM" Value="3"/>
<ItemData ItemOID="IT.QS.VISIT" Value="WEEK 2"/>
<ItemData ItemOID="IT.QS.VISITDY" Value="15"/>
<ItemData ItemOID="IT.QS.QSDTC" Value="2003-05-13"/>
<ItemData ItemOID="IT.QS.QSDY" Value="15"/>
<ItemData ItemOID="IT.QS.QSEVLINT" Value="-P1W"/>
</ItemGroupData>
<ItemGroupData ItemGroupOID="IG.QSCS" data:ItemGroupDataSeq="4">
<ItemData ItemOID="IT.STUDYID" Value="CDISC01"/>
<ItemData ItemOID="IT.QS.DOMAIN" Value="QS"/>
<ItemData ItemOID="IT.USUBJID" Value="CDISC01.100008"/>
<ItemData ItemOID="IT.QS.QSSEQ" Value="6"/>
<ItemData ItemOID="IT.QS.QSTESTCD" Value="CSDD01"/>
<ItemData ItemOID="IT.QS.QSTEST" Value="Anxiety"/>
<ItemData ItemOID="IT.QS.QSCAT" Value="CORNELL SCALE FOR DEPRESSION IN DEMENTIA (CSDD)"/>
<ItemData ItemOID="IT.QS.QSSCAT" Value="Mood - Related Signs"/>
<ItemData ItemOID="IT.QS.QSORRES" Value="Mild or Intermittent"/>
<ItemData ItemOID="IT.QS.QSSTRESC" Value="1"/>
<ItemData ItemOID="IT.QS.QSSTRESN" Value="1"/>
<ItemData ItemOID="IT.QS.VISITNUM" Value="10"/>
<ItemData ItemOID="IT.QS.VISIT" Value="WEEK 24"/>
<ItemData ItemOID="IT.QS.VISITDY" Value="169"/>
<ItemData ItemOID="IT.QS.QSDTC" Value="2003-10-13"/>
<ItemData ItemOID="IT.QS.QSDY" Value="168"/>
<ItemData ItemOID="IT.QS.QSEVLINT" Value="-P1W"/>
</ItemGroupData>
<ItemGroupData ItemGroupOID="IG.QSCS" data:ItemGroupDataSeq="5">
<ItemData ItemOID="IT.STUDYID" Value="CDISC01"/>
<ItemData ItemOID="IT.QS.DOMAIN" Value="QS"/>
<ItemData ItemOID="IT.USUBJID" Value="CDISC01.100008"/>
<ItemData ItemOID="IT.QS.QSSEQ" Value="7"/>
<ItemData ItemOID="IT.QS.QSTESTCD" Value="CSDD02"/>
<ItemData ItemOID="IT.QS.QSTEST" Value="Sadness"/>
<ItemData ItemOID="IT.QS.QSCAT" Value="CORNELL SCALE FOR DEPRESSION IN DEMENTIA (CSDD)"/>
<ItemData ItemOID="IT.QS.QSSCAT" Value="Mood - Related Signs"/>
<ItemData ItemOID="IT.QS.QSORRES" Value="Severe"/>
<ItemData ItemOID="IT.QS.QSSTRESC" Value="2"/>
<ItemData ItemOID="IT.QS.QSSTRESN" Value="2"/>
<ItemData ItemOID="IT.QS.VISITNUM" Value="1"/>
<ItemData ItemOID="IT.QS.VISIT" Value="SCREEN"/>
<ItemData ItemOID="IT.QS.VISITDY" Value="-13"/>
<ItemData ItemOID="IT.QS.QSDTC" Value="2003-04-15"/>
<ItemData ItemOID="IT.QS.QSDY" Value="-14"/>
<ItemData ItemOID="IT.QS.QSEVLINT" Value="-P1W"/>
</ItemGroupData>
<ItemGroupData ItemGroupOID="IG.QSCS" data:ItemGroupDataSeq="6">
<ItemData ItemOID="IT.STUDYID" Value="CDISC01"/>
<ItemData ItemOID="IT.QS.DOMAIN" Value="QS"/>
<ItemData ItemOID="IT.USUBJID" Value="CDISC01.100008"/>
<ItemData ItemOID="IT.QS.QSSEQ" Value="8"/>
<ItemData ItemOID="IT.QS.QSTESTCD" Value="CSDD02"/>
<ItemData ItemOID="IT.QS.QSTEST" Value="Sadness"/>
<ItemData ItemOID="IT.QS.QSCAT" Value="CORNELL SCALE FOR DEPRESSION IN DEMENTIA (CSDD)"/>
<ItemData ItemOID="IT.QS.QSSCAT" Value="Mood - Related Signs"/>
<ItemData ItemOID="IT.QS.QSORRES" Value="Mild or Intermittent"/>
<ItemData ItemOID="IT.QS.QSSTRESC" Value="1"/>
<ItemData ItemOID="IT.QS.QSSTRESN" Value="1"/>
<ItemData ItemOID="IT.QS.QSBLFL" Value="Y"/>
<ItemData ItemOID="IT.QS.VISITNUM" Value="2"/>
<ItemData ItemOID="IT.QS.VISIT" Value="BASELINE"/>
<ItemData ItemOID="IT.QS.VISITDY" Value="1"/>
<ItemData ItemOID="IT.QS.QSDTC" Value="2003-04-29"/>
<ItemData ItemOID="IT.QS.QSDY" Value="1"/>
<ItemData ItemOID="IT.QS.QSEVLINT" Value="-P1W"/>
</ItemGroupData>
<ItemGroupData ItemGroupOID="IG.QSCS" data:ItemGroupDataSeq="7">
<ItemData ItemOID="IT.STUDYID" Value="CDISC01"/>
<ItemData ItemOID="IT.QS.DOMAIN" Value="QS"/>
<ItemData ItemOID="IT.USUBJID" Value="CDISC01.100008"/>
<ItemData ItemOID="IT.QS.QSSEQ" Value="9"/>
<ItemData ItemOID="IT.QS.QSTESTCD" Value="CSDD02"/>
<ItemData ItemOID="IT.QS.QSTEST" Value="Sadness"/>
<ItemData ItemOID="IT.QS.QSCAT" Value="CORNELL SCALE FOR DEPRESSION IN DEMENTIA (CSDD)"/>
<ItemData ItemOID="IT.QS.QSSCAT" Value="Mood - Related Signs"/>
<ItemData ItemOID="IT.QS.QSORRES" Value="Absent"/>
<ItemData ItemOID="IT.QS.QSSTRESC" Value="0"/>
<ItemData ItemOID="IT.QS.QSSTRESN" Value="0"/>
<ItemData ItemOID="IT.QS.VISITNUM" Value="3"/>
<ItemData ItemOID="IT.QS.VISIT" Value="WEEK 2"/>
<ItemData ItemOID="IT.QS.VISITDY" Value="15"/>
<ItemData ItemOID="IT.QS.QSDTC" Value="2003-05-13"/>
<ItemData ItemOID="IT.QS.QSDY" Value="15"/>
<ItemData ItemOID="IT.QS.QSEVLINT" Value="-P1W"/>
</ItemGroupData>
<ItemGroupData ItemGroupOID="IG.QSCS" data:ItemGroupDataSeq="8">
<ItemData ItemOID="IT.STUDYID" Value="CDISC01"/>
<ItemData ItemOID="IT.QS.DOMAIN" Value="QS"/>
<ItemData ItemOID="IT.USUBJID" Value="CDISC01.100008"/>
<ItemData ItemOID="IT.QS.QSSEQ" Value="10"/>
<ItemData ItemOID="IT.QS.QSTESTCD" Value="CSDD02"/>
<ItemData ItemOID="IT.QS.QSTEST" Value="Sadness"/>
<ItemData ItemOID="IT.QS.QSCAT" Value="CORNELL SCALE FOR DEPRESSION IN DEMENTIA (CSDD)"/>
<ItemData ItemOID="IT.QS.QSSCAT" Value="Mood - Related Signs"/>
<ItemData ItemOID="IT.QS.QSORRES" Value="Absent"/>
<ItemData ItemOID="IT.QS.QSSTRESC" Value="0"/>
<ItemData ItemOID="IT.QS.QSSTRESN" Value="0"/>
<ItemData ItemOID="IT.QS.VISITNUM" Value="10"/>
<ItemData ItemOID="IT.QS.VISIT" Value="WEEK 24"/>
<ItemData ItemOID="IT.QS.VISITDY" Value="169"/>
<ItemData ItemOID="IT.QS.QSDTC" Value="2003-10-13"/>
<ItemData ItemOID="IT.QS.QSDY" Value="168"/>
<ItemData ItemOID="IT.QS.QSEVLINT" Value="-P1W"/>
</ItemGroupData>
<ItemGroupData ItemGroupOID="IG.QSCS" data:ItemGroupDataSeq="9">
<ItemData ItemOID="IT.STUDYID" Value="CDISC01"/>
<ItemData ItemOID="IT.QS.DOMAIN" Value="QS"/>
<ItemData ItemOID="IT.USUBJID" Value="CDISC01.100008"/>
<ItemData ItemOID="IT.QS.QSSEQ" Value="11"/>
<ItemData ItemOID="IT.QS.QSTESTCD" Value="CSDD03"/>
<ItemData ItemOID="IT.QS.QSTEST" Value="Lack of Reactivity to Pleasant Events"/>
<ItemData ItemOID="IT.QS.QSCAT" Value="CORNELL SCALE FOR DEPRESSION IN DEMENTIA (CSDD)"/>
<ItemData ItemOID="IT.QS.QSSCAT" Value="Mood - Related Signs"/>
<ItemData ItemOID="IT.QS.QSORRES" Value="Absent"/>
<ItemData ItemOID="IT.QS.QSSTRESC" Value="0"/>
<ItemData ItemOID="IT.QS.QSSTRESN" Value="0"/>
<ItemData ItemOID="IT.QS.VISITNUM" Value="1"/>
<ItemData ItemOID="IT.QS.VISIT" Value="SCREEN"/>
<ItemData ItemOID="IT.QS.VISITDY" Value="-13"/>
<ItemData ItemOID="IT.QS.QSDTC" Value="2003-04-15"/>
<ItemData ItemOID="IT.QS.QSDY" Value="-14"/>
<ItemData ItemOID="IT.QS.QSEVLINT" Value="-P1W"/>
</ItemGroupData>
<ItemGroupData ItemGroupOID="IG.QSCS" data:ItemGroupDataSeq="10">
<ItemData ItemOID="IT.STUDYID" Value="CDISC01"/>
<ItemData ItemOID="IT.QS.DOMAIN" Value="QS"/>
<ItemData ItemOID="IT.USUBJID" Value="CDISC01.100008"/>
<ItemData ItemOID="IT.QS.QSSEQ" Value="12"/>
<ItemData ItemOID="IT.QS.QSTESTCD" Value="CSDD03"/>
<ItemData ItemOID="IT.QS.QSTEST" Value="Lack of Reactivity to Pleasant Events"/>
<ItemData ItemOID="IT.QS.QSCAT" Value="CORNELL SCALE FOR DEPRESSION IN DEMENTIA (CSDD)"/>
<ItemData ItemOID="IT.QS.QSSCAT" Value="Mood - Related Signs"/>
<ItemData ItemOID="IT.QS.QSORRES" Value="Absent"/>
<ItemData ItemOID="IT.QS.QSSTRESC" Value="0"/>
<ItemData ItemOID="IT.QS.QSSTRESN" Value="0"/>
<ItemData ItemOID="IT.QS.QSBLFL" Value="Y"/>
<ItemData ItemOID="IT.QS.VISITNUM" Value="2"/>
<ItemData ItemOID="IT.QS.VISIT" Value="BASELINE"/>
<ItemData ItemOID="IT.QS.VISITDY" Value="1"/>
<ItemData ItemOID="IT.QS.QSDTC" Value="2003-04-29"/>
<ItemData ItemOID="IT.QS.QSDY" Value="1"/>
<ItemData ItemOID="IT.QS.QSEVLINT" Value="-P1W"/>
</ItemGroupData>
<ItemGroupData ItemGroupOID="IG.QSCS" data:ItemGroupDataSeq="11">
<ItemData ItemOID="IT.STUDYID" Value="CDISC01"/>
<ItemData ItemOID="IT.QS.DOMAIN" Value="QS"/>
<ItemData ItemOID="IT.USUBJID" Value="CDISC01.100008"/>
<ItemData ItemOID="IT.QS.QSSEQ" Value="13"/>
<ItemData ItemOID="IT.QS.QSTESTCD" Value="CSDD03"/>
<ItemData ItemOID="IT.QS.QSTEST" Value="Lack of Reactivity to Pleasant Events"/>
<ItemData ItemOID="IT.QS.QSCAT" Value="CORNELL SCALE FOR DEPRESSION IN DEMENTIA (CSDD)"/>
<ItemData ItemOID="IT.QS.QSSCAT" Value="Mood - Related Signs"/>
<ItemData ItemOID="IT.QS.QSORRES" Value="Absent"/>
<ItemData ItemOID="IT.QS.QSSTRESC" Value="0"/>
<ItemData ItemOID="IT.QS.QSSTRESN" Value="0"/>
<ItemData ItemOID="IT.QS.VISITNUM" Value="3"/>
<ItemData ItemOID="IT.QS.VISIT" Value="WEEK 2"/>
<ItemData ItemOID="IT.QS.VISITDY" Value="15"/>
<ItemData ItemOID="IT.QS.QSDTC" Value="2003-05-13"/>
<ItemData ItemOID="IT.QS.QSDY" Value="15"/>
<ItemData ItemOID="IT.QS.QSEVLINT" Value="-P1W"/>
</ItemGroupData>
<ItemGroupData ItemGroupOID="IG.QSCS" data:ItemGroupDataSeq="12">
<ItemData ItemOID="IT.STUDYID" Value="CDISC01"/>
<ItemData ItemOID="IT.QS.DOMAIN" Value="QS"/>
<ItemData ItemOID="IT.USUBJID" Value="CDISC01.100008"/>
<ItemData ItemOID="IT.QS.QSSEQ" Value="14"/>
<ItemData ItemOID="IT.QS.QSTESTCD" Value="CSDD03"/>
<ItemData ItemOID="IT.QS.QSTEST" Value="Lack of Reactivity to Pleasant Events"/>
<ItemData ItemOID="IT.QS.QSCAT" Value="CORNELL SCALE FOR DEPRESSION IN DEMENTIA (CSDD)"/>
<ItemData ItemOID="IT.QS.QSSCAT" Value="Mood - Related Signs"/>
<ItemData ItemOID="IT.QS.QSORRES" Value="Absent"/>
<ItemData ItemOID="IT.QS.QSSTRESC" Value="0"/>
<ItemData ItemOID="IT.QS.QSSTRESN" Value="0"/>
<ItemData ItemOID="IT.QS.VISITNUM" Value="10"/>
<ItemData ItemOID="IT.QS.VISIT" Value="WEEK 24"/>
<ItemData ItemOID="IT.QS.VISITDY" Value="169"/>
<ItemData ItemOID="IT.QS.QSDTC" Value="2003-10-13"/>
<ItemData ItemOID="IT.QS.QSDY" Value="168"/>
<ItemData ItemOID="IT.QS.QSEVLINT" Value="-P1W"/>
</ItemGroupData>
<ItemGroupData ItemGroupOID="IG.QSCS" data:ItemGroupDataSeq="13">
<ItemData ItemOID="IT.STUDYID" Value="CDISC01"/>
<ItemData ItemOID="IT.QS.DOMAIN" Value="QS"/>
<ItemData ItemOID="IT.USUBJID" Value="CDISC01.100008"/>
<ItemData ItemOID="IT.QS.QSSEQ" Value="15"/>
<ItemData ItemOID="IT.QS.QSTESTCD" Value="CSDD04"/>
<ItemData ItemOID="IT.QS.QSTEST" Value="Irritability"/>
<ItemData ItemOID="IT.QS.QSCAT" Value="CORNELL SCALE FOR DEPRESSION IN DEMENTIA (CSDD)"/>
<ItemData ItemOID="IT.QS.QSSCAT" Value="Mood - Related Signs"/>
<ItemData ItemOID="IT.QS.QSORRES" Value="Mild or Intermittent"/>
<ItemData ItemOID="IT.QS.QSSTRESC" Value="1"/>
<ItemData ItemOID="IT.QS.QSSTRESN" Value="1"/>
<ItemData ItemOID="IT.QS.VISITNUM" Value="1"/>
<ItemData ItemOID="IT.QS.VISIT" Value="SCREEN"/>
<ItemData ItemOID="IT.QS.VISITDY" Value="-13"/>
<ItemData ItemOID="IT.QS.QSDTC" Value="2003-04-15"/>
<ItemData ItemOID="IT.QS.QSDY" Value="-14"/>
<ItemData ItemOID="IT.QS.QSEVLINT" Value="-P1W"/>
</ItemGroupData>
<ItemGroupData ItemGroupOID="IG.QSCS" data:ItemGroupDataSeq="14">
<ItemData ItemOID="IT.STUDYID" Value="CDISC01"/>
<ItemData ItemOID="IT.QS.DOMAIN" Value="QS"/>
<ItemData ItemOID="IT.USUBJID" Value="CDISC01.100008"/>
<ItemData ItemOID="IT.QS.QSSEQ" Value="16"/>
<ItemData ItemOID="IT.QS.QSTESTCD" Value="CSDD04"/>
<ItemData ItemOID="IT.QS.QSTEST" Value="Irritability"/>
<ItemData ItemOID="IT.QS.QSCAT" Value="CORNELL SCALE FOR DEPRESSION IN DEMENTIA (CSDD)"/>
<ItemData ItemOID="IT.QS.QSSCAT" Value="Mood - Related Signs"/>
<ItemData ItemOID="IT.QS.QSORRES" Value="Mild or Intermittent"/>
<ItemData ItemOID="IT.QS.QSSTRESC" Value="1"/>
<ItemData ItemOID="IT.QS.QSSTRESN" Value="1"/>
<ItemData ItemOID="IT.QS.QSBLFL" Value="Y"/>
<ItemData ItemOID="IT.QS.VISITNUM" Value="2"/>
<ItemData ItemOID="IT.QS.VISIT" Value="BASELINE"/>
<ItemData ItemOID="IT.QS.VISITDY" Value="1"/>
<ItemData ItemOID="IT.QS.QSDTC" Value="2003-04-29"/>
<ItemData ItemOID="IT.QS.QSDY" Value="1"/>
<ItemData ItemOID="IT.QS.QSEVLINT" Value="-P1W"/>
</ItemGroupData>
<ItemGroupData ItemGroupOID="IG.QSCS" data:ItemGroupDataSeq="15">
<ItemData ItemOID="IT.STUDYID" Value="CDISC01"/>
<ItemData ItemOID="IT.QS.DOMAIN" Value="QS"/>
<ItemData ItemOID="IT.USUBJID" Value="CDISC01.100008"/>
<ItemData ItemOID="IT.QS.QSSEQ" Value="17"/>
<ItemData ItemOID="IT.QS.QSTESTCD" Value="CSDD04"/>
<ItemData ItemOID="IT.QS.QSTEST" Value="Irritability"/>
<ItemData ItemOID="IT.QS.QSCAT" Value="CORNELL SCALE FOR DEPRESSION IN DEMENTIA (CSDD)"/>
<ItemData ItemOID="IT.QS.QSSCAT" Value="Mood - Related Signs"/>
<ItemData ItemOID="IT.QS.QSORRES" Value="Absent"/>
<ItemData ItemOID="IT.QS.QSSTRESC" Value="0"/>
<ItemData ItemOID="IT.QS.QSSTRESN" Value="0"/>
<ItemData ItemOID="IT.QS.VISITNUM" Value="3"/>
<ItemData ItemOID="IT.QS.VISIT" Value="WEEK 2"/>
<ItemData ItemOID="IT.QS.VISITDY" Value="15"/>
<ItemData ItemOID="IT.QS.QSDTC" Value="2003-05-13"/>
<ItemData ItemOID="IT.QS.QSDY" Value="15"/>
<ItemData ItemOID="IT.QS.QSEVLINT" Value="-P1W"/>
</ItemGroupData>
<ItemGroupData ItemGroupOID="IG.QSCS" data:ItemGroupDataSeq="16">
<ItemData ItemOID="IT.STUDYID" Value="CDISC01"/>
<ItemData ItemOID="IT.QS.DOMAIN" Value="QS"/>
<ItemData ItemOID="IT.USUBJID" Value="CDISC01.100008"/>
<ItemData ItemOID="IT.QS.QSSEQ" Value="18"/>
<ItemData ItemOID="IT.QS.QSTESTCD" Value="CSDD04"/>
<ItemData ItemOID="IT.QS.QSTEST" Value="Irritability"/>
<ItemData ItemOID="IT.QS.QSCAT" Value="CORNELL SCALE FOR DEPRESSION IN DEMENTIA (CSDD)"/>
<ItemData ItemOID="IT.QS.QSSCAT" Value="Mood - Related Signs"/>
<ItemData ItemOID="IT.QS.QSORRES" Value="Mild or Intermittent"/>
<ItemData ItemOID="IT.QS.QSSTRESC" Value="1"/>
<ItemData ItemOID="IT.QS.QSSTRESN" Value="1"/>
<ItemData ItemOID="IT.QS.VISITNUM" Value="10"/>
<ItemData ItemOID="IT.QS.VISIT" Value="WEEK 24"/>
<ItemData ItemOID="IT.QS.VISITDY" Value="169"/>
<ItemData ItemOID="IT.QS.QSDTC" Value="2003-10-13"/>
<ItemData ItemOID="IT.QS.QSDY" Value="168"/>
<ItemData ItemOID="IT.QS.QSEVLINT" Value="-P1W"/>
</ItemGroupData>
<ItemGroupData ItemGroupOID="IG.QSCS" data:ItemGroupDataSeq="17">
<ItemData ItemOID="IT.STUDYID" Value="CDISC01"/>
<ItemData ItemOID="IT.QS.DOMAIN" Value="QS"/>
<ItemData ItemOID="IT.USUBJID" Value="CDISC01.100008"/>
<ItemData ItemOID="IT.QS.QSSEQ" Value="19"/>
<ItemData ItemOID="IT.QS.QSTESTCD" Value="CSDD05"/>
<ItemData ItemOID="IT.QS.QSTEST" Value="Agitation"/>
<ItemData ItemOID="IT.QS.QSCAT" Value="CORNELL SCALE FOR DEPRESSION IN DEMENTIA (CSDD)"/>
<ItemData ItemOID="IT.QS.QSSCAT" Value="Behavioral Disturbance"/>
<ItemData ItemOID="IT.QS.QSORRES" Value="Mild or Intermittent"/>
<ItemData ItemOID="IT.QS.QSSTRESC" Value="1"/>
<ItemData ItemOID="IT.QS.QSSTRESN" Value="1"/>
<ItemData ItemOID="IT.QS.VISITNUM" Value="1"/>
<ItemData ItemOID="IT.QS.VISIT" Value="SCREEN"/>
<ItemData ItemOID="IT.QS.VISITDY" Value="-13"/>
<ItemData ItemOID="IT.QS.QSDTC" Value="2003-04-15"/>
<ItemData ItemOID="IT.QS.QSDY" Value="-14"/>
<ItemData ItemOID="IT.QS.QSEVLINT" Value="-P1W"/>
</ItemGroupData>
<ItemGroupData ItemGroupOID="IG.QSCS" data:ItemGroupDataSeq="18">
<ItemData ItemOID="IT.STUDYID" Value="CDISC01"/>
<ItemData ItemOID="IT.QS.DOMAIN" Value="QS"/>
<ItemData ItemOID="IT.USUBJID" Value="CDISC01.100008"/>
<ItemData ItemOID="IT.QS.QSSEQ" Value="20"/>
<ItemData ItemOID="IT.QS.QSTESTCD" Value="CSDD05"/>
<ItemData ItemOID="IT.QS.QSTEST" Value="Agitation"/>
<ItemData ItemOID="IT.QS.QSCAT" Value="CORNELL SCALE FOR DEPRESSION IN DEMENTIA (CSDD)"/>
<ItemData ItemOID="IT.QS.QSSCAT" Value="Behavioral Disturbance"/>
<ItemData ItemOID="IT.QS.QSORRES" Value="Mild or Intermittent"/>
<ItemData ItemOID="IT.QS.QSSTRESC" Value="1"/>
<ItemData ItemOID="IT.QS.QSSTRESN" Value="1"/>
<ItemData ItemOID="IT.QS.QSBLFL" Value="Y"/>
<ItemData ItemOID="IT.QS.VISITNUM" Value="2"/>
<ItemData ItemOID="IT.QS.VISIT" Value="BASELINE"/>
<ItemData ItemOID="IT.QS.VISITDY" Value="1"/>
<ItemData ItemOID="IT.QS.QSDTC" Value="2003-04-29"/>
<ItemData ItemOID="IT.QS.QSDY" Value="1"/>
<ItemData ItemOID="IT.QS.QSEVLINT" Value="-P1W"/>
</ItemGroupData>
<ItemGroupData ItemGroupOID="IG.QSCS" data:ItemGroupDataSeq="19">
<ItemData ItemOID="IT.STUDYID" Value="CDISC01"/>
<ItemData ItemOID="IT.QS.DOMAIN" Value="QS"/>
<ItemData ItemOID="IT.USUBJID" Value="CDISC01.100008"/>
<ItemData ItemOID="IT.QS.QSSEQ" Value="21"/>
<ItemData ItemOID="IT.QS.QSTESTCD" Value="CSDD05"/>
<ItemData ItemOID="IT.QS.QSTEST" Value="Agitation"/>
<ItemData ItemOID="IT.QS.QSCAT" Value="CORNELL SCALE FOR DEPRESSION IN DEMENTIA (CSDD)"/>
<ItemData ItemOID="IT.QS.QSSCAT" Value="Behavioral Disturbance"/>
<ItemData ItemOID="IT.QS.QSORRES" Value="Mild or Intermittent"/>
<ItemData ItemOID="IT.QS.QSSTRESC" Value="1"/>
<ItemData ItemOID="IT.QS.QSSTRESN" Value="1"/>
<ItemData ItemOID="IT.QS.VISITNUM" Value="3"/>
<ItemData ItemOID="IT.QS.VISIT" Value="WEEK 2"/>
<ItemData ItemOID="IT.QS.VISITDY" Value="15"/>
<ItemData ItemOID="IT.QS.QSDTC" Value="2003-05-13"/>
<ItemData ItemOID="IT.QS.QSDY" Value="15"/>
<ItemData ItemOID="IT.QS.QSEVLINT" Value="-P1W"/>
</ItemGroupData>
<ItemGroupData ItemGroupOID="IG.QSCS" data:ItemGroupDataSeq="20">
<ItemData ItemOID="IT.STUDYID" Value="CDISC01"/>
<ItemData ItemOID="IT.QS.DOMAIN" Value="QS"/>
<ItemData ItemOID="IT.USUBJID" Value="CDISC01.100008"/>
<ItemData ItemOID="IT.QS.QSSEQ" Value="22"/>
<ItemData ItemOID="IT.QS.QSTESTCD" Value="CSDD05"/>
<ItemData ItemOID="IT.QS.QSTEST" Value="Agitation"/>
<ItemData ItemOID="IT.QS.QSCAT" Value="CORNELL SCALE FOR DEPRESSION IN DEMENTIA (CSDD)"/>
<ItemData ItemOID="IT.QS.QSSCAT" Value="Behavioral Disturbance"/>
<ItemData ItemOID="IT.QS.QSORRES" Value="Absent"/>
<ItemData ItemOID="IT.QS.QSSTRESC" Value="0"/>
<ItemData ItemOID="IT.QS.QSSTRESN" Value="0"/>
<ItemData ItemOID="IT.QS.VISITNUM" Value="10"/>
<ItemData ItemOID="IT.QS.VISIT" Value="WEEK 24"/>
<ItemData ItemOID="IT.QS.VISITDY" Value="169"/>
<ItemData ItemOID="IT.QS.QSDTC" Value="2003-10-13"/>
<ItemData ItemOID="IT.QS.QSDY" Value="168"/>
<ItemData ItemOID="IT.QS.QSEVLINT" Value="-P1W"/>
</ItemGroupData>
<ItemGroupData ItemGroupOID="IG.QSCS" data:ItemGroupDataSeq="21">
<ItemData ItemOID="IT.STUDYID" Value="CDISC01"/>
<ItemData ItemOID="IT.QS.DOMAIN" Value="QS"/>
<ItemData ItemOID="IT.USUBJID" Value="CDISC01.100008"/>
<ItemData ItemOID="IT.QS.QSSEQ" Value="23"/>
<ItemData ItemOID="IT.QS.QSTESTCD" Value="CSDD06"/>
<ItemData ItemOID="IT.QS.QSTEST" Value="Retardation"/>
<ItemData ItemOID="IT.QS.QSCAT" Value="CORNELL SCALE FOR DEPRESSION IN DEMENTIA (CSDD)"/>
<ItemData ItemOID="IT.QS.QSSCAT" Value="Behavioral Disturbance"/>
<ItemData ItemOID="IT.QS.QSORRES" Value="Mild or Intermittent"/>
<ItemData ItemOID="IT.QS.QSSTRESC" Value="1"/>
<ItemData ItemOID="IT.QS.QSSTRESN" Value="1"/>
<ItemData ItemOID="IT.QS.VISITNUM" Value="1"/>
<ItemData ItemOID="IT.QS.VISIT" Value="SCREEN"/>
<ItemData ItemOID="IT.QS.VISITDY" Value="-13"/>
<ItemData ItemOID="IT.QS.QSDTC" Value="2003-04-15"/>
<ItemData ItemOID="IT.QS.QSDY" Value="-14"/>
<ItemData ItemOID="IT.QS.QSEVLINT" Value="-P1W"/>
</ItemGroupData>
<ItemGroupData ItemGroupOID="IG.QSCS" data:ItemGroupDataSeq="22">
<ItemData ItemOID="IT.STUDYID" Value="CDISC01"/>
<ItemData ItemOID="IT.QS.DOMAIN" Value="QS"/>
<ItemData ItemOID="IT.USUBJID" Value="CDISC01.100008"/>
<ItemData ItemOID="IT.QS.QSSEQ" Value="24"/>
<ItemData ItemOID="IT.QS.QSTESTCD" Value="CSDD06"/>
<ItemData ItemOID="IT.QS.QSTEST" Value="Retardation"/>
<ItemData ItemOID="IT.QS.QSCAT" Value="CORNELL SCALE FOR DEPRESSION IN DEMENTIA (CSDD)"/>
<ItemData ItemOID="IT.QS.QSSCAT" Value="Behavioral Disturbance"/>
<ItemData ItemOID="IT.QS.QSORRES" Value="Mild or Intermittent"/>
<ItemData ItemOID="IT.QS.QSSTRESC" Value="1"/>
<ItemData ItemOID="IT.QS.QSSTRESN" Value="1"/>
<ItemData ItemOID="IT.QS.QSBLFL" Value="Y"/>
<ItemData ItemOID="IT.QS.VISITNUM" Value="2"/>
<ItemData ItemOID="IT.QS.VISIT" Value="BASELINE"/>
<ItemData ItemOID="IT.QS.VISITDY" Value="1"/>
<ItemData ItemOID="IT.QS.QSDTC" Value="2003-04-29"/>
<ItemData ItemOID="IT.QS.QSDY" Value="1"/>
<ItemData ItemOID="IT.QS.QSEVLINT" Value="-P1W"/>
</ItemGroupData>
<ItemGroupData ItemGroupOID="IG.QSCS" data:ItemGroupDataSeq="23">
<ItemData ItemOID="IT.STUDYID" Value="CDISC01"/>
<ItemData ItemOID="IT.QS.DOMAIN" Value="QS"/>
<ItemData ItemOID="IT.USUBJID" Value="CDISC01.100008"/>
<ItemData ItemOID="IT.QS.QSSEQ" Value="25"/>
<ItemData ItemOID="IT.QS.QSTESTCD" Value="CSDD06"/>
<ItemData ItemOID="IT.QS.QSTEST" Value="Retardation"/>
<ItemData ItemOID="IT.QS.QSCAT" Value="CORNELL SCALE FOR DEPRESSION IN DEMENTIA (CSDD)"/>
<ItemData ItemOID="IT.QS.QSSCAT" Value="Behavioral Disturbance"/>
<ItemData ItemOID="IT.QS.QSORRES" Value="Mild or Intermittent"/>
<ItemData ItemOID="IT.QS.QSSTRESC" Value="1"/>
<ItemData ItemOID="IT.QS.QSSTRESN" Value="1"/>
<ItemData ItemOID="IT.QS.VISITNUM" Value="3"/>
<ItemData ItemOID="IT.QS.VISIT" Value="WEEK 2"/>
<ItemData ItemOID="IT.QS.VISITDY" Value="15"/>
<ItemData ItemOID="IT.QS.QSDTC" Value="2003-05-13"/>
<ItemData ItemOID="IT.QS.QSDY" Value="15"/>
<ItemData ItemOID="IT.QS.QSEVLINT" Value="-P1W"/>
</ItemGroupData>
<ItemGroupData ItemGroupOID="IG.QSCS" data:ItemGroupDataSeq="24">
<ItemData ItemOID="IT.STUDYID" Value="CDISC01"/>
<ItemData ItemOID="IT.QS.DOMAIN" Value="QS"/>
<ItemData ItemOID="IT.USUBJID" Value="CDISC01.100008"/>
<ItemData ItemOID="IT.QS.QSSEQ" Value="26"/>
<ItemData ItemOID="IT.QS.QSTESTCD" Value="CSDD06"/>
<ItemData ItemOID="IT.QS.QSTEST" Value="Retardation"/>
<ItemData ItemOID="IT.QS.QSCAT" Value="CORNELL SCALE FOR DEPRESSION IN DEMENTIA (CSDD)"/>
<ItemData ItemOID="IT.QS.QSSCAT" Value="Behavioral Disturbance"/>
<ItemData ItemOID="IT.QS.QSORRES" Value="Mild or Intermittent"/>
<ItemData ItemOID="IT.QS.QSSTRESC" Value="1"/>
<ItemData ItemOID="IT.QS.QSSTRESN" Value="1"/>
<ItemData ItemOID="IT.QS.VISITNUM" Value="10"/>
<ItemData ItemOID="IT.QS.VISIT" Value="WEEK 24"/>
<ItemData ItemOID="IT.QS.VISITDY" Value="169"/>
<ItemData ItemOID="IT.QS.QSDTC" Value="2003-10-13"/>
<ItemData ItemOID="IT.QS.QSDY" Value="168"/>
<ItemData ItemOID="IT.QS.QSEVLINT" Value="-P1W"/>
</ItemGroupData>
<ItemGroupData ItemGroupOID="IG.QSCS" data:ItemGroupDataSeq="25">
<ItemData ItemOID="IT.STUDYID" Value="CDISC01"/>
<ItemData ItemOID="IT.QS.DOMAIN" Value="QS"/>
<ItemData ItemOID="IT.USUBJID" Value="CDISC01.100008"/>
<ItemData ItemOID="IT.QS.QSSEQ" Value="27"/>
<ItemData ItemOID="IT.QS.QSTESTCD" Value="CSDD07"/>
<ItemData ItemOID="IT.QS.QSTEST" Value="Multiple Physical Complaints"/>
<ItemData ItemOID="IT.QS.QSCAT" Value="CORNELL SCALE FOR DEPRESSION IN DEMENTIA (CSDD)"/>
<ItemData ItemOID="IT.QS.QSSCAT" Value="Behavioral Disturbance"/>
<ItemData ItemOID="IT.QS.QSORRES" Value="Mild or Intermittent"/>
<ItemData ItemOID="IT.QS.QSSTRESC" Value="1"/>
<ItemData ItemOID="IT.QS.QSSTRESN" Value="1"/>
<ItemData ItemOID="IT.QS.VISITNUM" Value="1"/>
<ItemData ItemOID="IT.QS.VISIT" Value="SCREEN"/>
<ItemData ItemOID="IT.QS.VISITDY" Value="-13"/>
<ItemData ItemOID="IT.QS.QSDTC" Value="2003-04-15"/>
<ItemData ItemOID="IT.QS.QSDY" Value="-14"/>
<ItemData ItemOID="IT.QS.QSEVLINT" Value="-P1W"/>
</ItemGroupData>
<ItemGroupData ItemGroupOID="IG.QSCS" data:ItemGroupDataSeq="26">
<ItemData ItemOID="IT.STUDYID" Value="CDISC01"/>
<ItemData ItemOID="IT.QS.DOMAIN" Value="QS"/>
<ItemData ItemOID="IT.USUBJID" Value="CDISC01.100008"/>
<ItemData ItemOID="IT.QS.QSSEQ" Value="28"/>
<ItemData ItemOID="IT.QS.QSTESTCD" Value="CSDD07"/>
<ItemData ItemOID="IT.QS.QSTEST" Value="Multiple Physical Complaints"/>
<ItemData ItemOID="IT.QS.QSCAT" Value="CORNELL SCALE FOR DEPRESSION IN DEMENTIA (CSDD)"/>
<ItemData ItemOID="IT.QS.QSSCAT" Value="Behavioral Disturbance"/>
<ItemData ItemOID="IT.QS.QSORRES" Value="Mild or Intermittent"/>
<ItemData ItemOID="IT.QS.QSSTRESC" Value="1"/>
<ItemData ItemOID="IT.QS.QSSTRESN" Value="1"/>
<ItemData ItemOID="IT.QS.QSBLFL" Value="Y"/>
<ItemData ItemOID="IT.QS.VISITNUM" Value="2"/>
<ItemData ItemOID="IT.QS.VISIT" Value="BASELINE"/>
<ItemData ItemOID="IT.QS.VISITDY" Value="1"/>
<ItemData ItemOID="IT.QS.QSDTC" Value="2003-04-29"/>
<ItemData ItemOID="IT.QS.QSDY" Value="1"/>
<ItemData ItemOID="IT.QS.QSEVLINT" Value="-P1W"/>
</ItemGroupData>
<ItemGroupData ItemGroupOID="IG.QSCS" data:ItemGroupDataSeq="27">
<ItemData ItemOID="IT.STUDYID" Value="CDISC01"/>
<ItemData ItemOID="IT.QS.DOMAIN" Value="QS"/>
<ItemData ItemOID="IT.USUBJID" Value="CDISC01.100008"/>
<ItemData ItemOID="IT.QS.QSSEQ" Value="29"/>
<ItemData ItemOID="IT.QS.QSTESTCD" Value="CSDD07"/>
<ItemData ItemOID="IT.QS.QSTEST" Value="Multiple Physical Complaints"/>
<ItemData ItemOID="IT.QS.QSCAT" Value="CORNELL SCALE FOR DEPRESSION IN DEMENTIA (CSDD)"/>
<ItemData ItemOID="IT.QS.QSSCAT" Value="Behavioral Disturbance"/>
<ItemData ItemOID="IT.QS.QSORRES" Value="Mild or Intermittent"/>
<ItemData ItemOID="IT.QS.QSSTRESC" Value="1"/>
<ItemData ItemOID="IT.QS.QSSTRESN" Value="1"/>
<ItemData ItemOID="IT.QS.VISITNUM" Value="3"/>
<ItemData ItemOID="IT.QS.VISIT" Value="WEEK 2"/>
<ItemData ItemOID="IT.QS.VISITDY" Value="15"/>
<ItemData ItemOID="IT.QS.QSDTC" Value="2003-05-13"/>
<ItemData ItemOID="IT.QS.QSDY" Value="15"/>
<ItemData ItemOID="IT.QS.QSEVLINT" Value="-P1W"/>
</ItemGroupData>
<ItemGroupData ItemGroupOID="IG.QSCS" data:ItemGroupDataSeq="28">
<ItemData ItemOID="IT.STUDYID" Value="CDISC01"/>
<ItemData ItemOID="IT.QS.DOMAIN" Value="QS"/>
<ItemData ItemOID="IT.USUBJID" Value="CDISC01.100008"/>
<ItemData ItemOID="IT.QS.QSSEQ" Value="30"/>
<ItemData ItemOID="IT.QS.QSTESTCD" Value="CSDD07"/>
<ItemData ItemOID="IT.QS.QSTEST" Value="Multiple Physical Complaints"/>
<ItemData ItemOID="IT.QS.QSCAT" Value="CORNELL SCALE FOR DEPRESSION IN DEMENTIA (CSDD)"/>
<ItemData ItemOID="IT.QS.QSSCAT" Value="Behavioral Disturbance"/>
<ItemData ItemOID="IT.QS.QSORRES" Value="Mild or Intermittent"/>
<ItemData ItemOID="IT.QS.QSSTRESC" Value="1"/>
<ItemData ItemOID="IT.QS.QSSTRESN" Value="1"/>
<ItemData ItemOID="IT.QS.VISITNUM" Value="10"/>
<ItemData ItemOID="IT.QS.VISIT" Value="WEEK 24"/>
<ItemData ItemOID="IT.QS.VISITDY" Value="169"/>
<ItemData ItemOID="IT.QS.QSDTC" Value="2003-10-13"/>
<ItemData ItemOID="IT.QS.QSDY" Value="168"/>
<ItemData ItemOID="IT.QS.QSEVLINT" Value="-P1W"/>
</ItemGroupData>
<ItemGroupData ItemGroupOID="IG.QSCS" data:ItemGroupDataSeq="29">
<ItemData ItemOID="IT.STUDYID" Value="CDISC01"/>
<ItemData ItemOID="IT.QS.DOMAIN" Value="QS"/>
<ItemData ItemOID="IT.USUBJID" Value="CDISC01.100008"/>
<ItemData ItemOID="IT.QS.QSSEQ" Value="31"/>
<ItemData ItemOID="IT.QS.QSTESTCD" Value="CSDD08"/>
<ItemData ItemOID="IT.QS.QSTEST" Value="Loss of Interest"/>
<ItemData ItemOID="IT.QS.QSCAT" Value="CORNELL SCALE FOR DEPRESSION IN DEMENTIA (CSDD)"/>
<ItemData ItemOID="IT.QS.QSSCAT" Value="Behavioral Disturbance"/>
<ItemData ItemOID="IT.QS.QSORRES" Value="Mild or Intermittent"/>
<ItemData ItemOID="IT.QS.QSSTRESC" Value="1"/>
<ItemData ItemOID="IT.QS.QSSTRESN" Value="1"/>
<ItemData ItemOID="IT.QS.VISITNUM" Value="1"/>
<ItemData ItemOID="IT.QS.VISIT" Value="SCREEN"/>
<ItemData ItemOID="IT.QS.VISITDY" Value="-13"/>
<ItemData ItemOID="IT.QS.QSDTC" Value="2003-04-15"/>
<ItemData ItemOID="IT.QS.QSDY" Value="-14"/>
<ItemData ItemOID="IT.QS.QSEVLINT" Value="-P1W"/>
</ItemGroupData>
<ItemGroupData ItemGroupOID="IG.QSCS" data:ItemGroupDataSeq="30">
<ItemData ItemOID="IT.STUDYID" Value="CDISC01"/>
<ItemData ItemOID="IT.QS.DOMAIN" Value="QS"/>
<ItemData ItemOID="IT.USUBJID" Value="CDISC01.100008"/>
<ItemData ItemOID="IT.QS.QSSEQ" Value="32"/>
<ItemData ItemOID="IT.QS.QSTESTCD" Value="CSDD08"/>
<ItemData ItemOID="IT.QS.QSTEST" Value="Loss of Interest"/>
<ItemData ItemOID="IT.QS.QSCAT" Value="CORNELL SCALE FOR DEPRESSION IN DEMENTIA (CSDD)"/>
<ItemData ItemOID="IT.QS.QSSCAT" Value="Behavioral Disturbance"/>
<ItemData ItemOID="IT.QS.QSORRES" Value="Mild or Intermittent"/>
<ItemData ItemOID="IT.QS.QSSTRESC" Value="1"/>
<ItemData ItemOID="IT.QS.QSSTRESN" Value="1"/>
<ItemData ItemOID="IT.QS.QSBLFL" Value="Y"/>
<ItemData ItemOID="IT.QS.VISITNUM" Value="2"/>
<ItemData ItemOID="IT.QS.VISIT" Value="BASELINE"/>
<ItemData ItemOID="IT.QS.VISITDY" Value="1"/>
<ItemData ItemOID="IT.QS.QSDTC" Value="2003-04-29"/>
<ItemData ItemOID="IT.QS.QSDY" Value="1"/>
<ItemData ItemOID="IT.QS.QSEVLINT" Value="-P1W"/>
</ItemGroupData>
<ItemGroupData ItemGroupOID="IG.QSCS" data:ItemGroupDataSeq="31">
<ItemData ItemOID="IT.STUDYID" Value="CDISC01"/>
<ItemData ItemOID="IT.QS.DOMAIN" Value="QS"/>
<ItemData ItemOID="IT.USUBJID" Value="CDISC01.100008"/>
<ItemData ItemOID="IT.QS.QSSEQ" Value="33"/>
<ItemData ItemOID="IT.QS.QSTESTCD" Value="CSDD08"/>
<ItemData ItemOID="IT.QS.QSTEST" Value="Loss of Interest"/>
<ItemData ItemOID="IT.QS.QSCAT" Value="CORNELL SCALE FOR DEPRESSION IN DEMENTIA (CSDD)"/>
<ItemData ItemOID="IT.QS.QSSCAT" Value="Behavioral Disturbance"/>
<ItemData ItemOID="IT.QS.QSORRES" Value="Mild or Intermittent"/>
<ItemData ItemOID="IT.QS.QSSTRESC" Value="1"/>
<ItemData ItemOID="IT.QS.QSSTRESN" Value="1"/>
<ItemData ItemOID="IT.QS.VISITNUM" Value="3"/>
<ItemData ItemOID="IT.QS.VISIT" Value="WEEK 2"/>
<ItemData ItemOID="IT.QS.VISITDY" Value="15"/>
<ItemData ItemOID="IT.QS.QSDTC" Value="2003-05-13"/>
<ItemData ItemOID="IT.QS.QSDY" Value="15"/>
<ItemData ItemOID="IT.QS.QSEVLINT" Value="-P1W"/>
</ItemGroupData>
<ItemGroupData ItemGroupOID="IG.QSCS" data:ItemGroupDataSeq="32">
<ItemData ItemOID="IT.STUDYID" Value="CDISC01"/>
<ItemData ItemOID="IT.QS.DOMAIN" Value="QS"/>
<ItemData ItemOID="IT.USUBJID" Value="CDISC01.100008"/>
<ItemData ItemOID="IT.QS.QSSEQ" Value="34"/>
<ItemData ItemOID="IT.QS.QSTESTCD" Value="CSDD08"/>
<ItemData ItemOID="IT.QS.QSTEST" Value="Loss of Interest"/>
<ItemData ItemOID="IT.QS.QSCAT" Value="CORNELL SCALE FOR DEPRESSION IN DEMENTIA (CSDD)"/>
<ItemData ItemOID="IT.QS.QSSCAT" Value="Behavioral Disturbance"/>
<ItemData ItemOID="IT.QS.QSORRES" Value="Absent"/>
<ItemData ItemOID="IT.QS.QSSTRESC" Value="0"/>
<ItemData ItemOID="IT.QS.QSSTRESN" Value="0"/>
<ItemData ItemOID="IT.QS.VISITNUM" Value="10"/>
<ItemData ItemOID="IT.QS.VISIT" Value="WEEK 24"/>
<ItemData ItemOID="IT.QS.VISITDY" Value="169"/>
<ItemData ItemOID="IT.QS.QSDTC" Value="2003-10-13"/>
<ItemData ItemOID="IT.QS.QSDY" Value="168"/>
<ItemData ItemOID="IT.QS.QSEVLINT" Value="-P1W"/>
</ItemGroupData>
<ItemGroupData ItemGroupOID="IG.QSCS" data:ItemGroupDataSeq="33">
<ItemData ItemOID="IT.STUDYID" Value="CDISC01"/>
<ItemData ItemOID="IT.QS.DOMAIN" Value="QS"/>
<ItemData ItemOID="IT.USUBJID" Value="CDISC01.100008"/>
<ItemData ItemOID="IT.QS.QSSEQ" Value="35"/>
<ItemData ItemOID="IT.QS.QSTESTCD" Value="CSDD09"/>
<ItemData ItemOID="IT.QS.QSTEST" Value="Appetite Loss"/>
<ItemData ItemOID="IT.QS.QSCAT" Value="CORNELL SCALE FOR DEPRESSION IN DEMENTIA (CSDD)"/>
<ItemData ItemOID="IT.QS.QSSCAT" Value="Physical Signs"/>
<ItemData ItemOID="IT.QS.QSORRES" Value="Absent"/>
<ItemData ItemOID="IT.QS.QSSTRESC" Value="0"/>
<ItemData ItemOID="IT.QS.QSSTRESN" Value="0"/>
<ItemData ItemOID="IT.QS.VISITNUM" Value="1"/>
<ItemData ItemOID="IT.QS.VISIT" Value="SCREEN"/>
<ItemData ItemOID="IT.QS.VISITDY" Value="-13"/>
<ItemData ItemOID="IT.QS.QSDTC" Value="2003-04-15"/>
<ItemData ItemOID="IT.QS.QSDY" Value="-14"/>
<ItemData ItemOID="IT.QS.QSEVLINT" Value="-P1W"/>
</ItemGroupData>
<ItemGroupData ItemGroupOID="IG.QSCS" data:ItemGroupDataSeq="34">
<ItemData ItemOID="IT.STUDYID" Value="CDISC01"/>
<ItemData ItemOID="IT.QS.DOMAIN" Value="QS"/>
<ItemData ItemOID="IT.USUBJID" Value="CDISC01.100008"/>
<ItemData ItemOID="IT.QS.QSSEQ" Value="36"/>
<ItemData ItemOID="IT.QS.QSTESTCD" Value="CSDD09"/>
<ItemData ItemOID="IT.QS.QSTEST" Value="Appetite Loss"/>
<ItemData ItemOID="IT.QS.QSCAT" Value="CORNELL SCALE FOR DEPRESSION IN DEMENTIA (CSDD)"/>
<ItemData ItemOID="IT.QS.QSSCAT" Value="Physical Signs"/>
<ItemData ItemOID="IT.QS.QSORRES" Value="Absent"/>
<ItemData ItemOID="IT.QS.QSSTRESC" Value="0"/>
<ItemData ItemOID="IT.QS.QSSTRESN" Value="0"/>
<ItemData ItemOID="IT.QS.QSBLFL" Value="Y"/>
<ItemData ItemOID="IT.QS.VISITNUM" Value="2"/>
<ItemData ItemOID="IT.QS.VISIT" Value="BASELINE"/>
<ItemData ItemOID="IT.QS.VISITDY" Value="1"/>
<ItemData ItemOID="IT.QS.QSDTC" Value="2003-04-29"/>
<ItemData ItemOID="IT.QS.QSDY" Value="1"/>
<ItemData ItemOID="IT.QS.QSEVLINT" Value="-P1W"/>
</ItemGroupData>
<ItemGroupData ItemGroupOID="IG.QSCS" data:ItemGroupDataSeq="35">
<ItemData ItemOID="IT.STUDYID" Value="CDISC01"/>
<ItemData ItemOID="IT.QS.DOMAIN" Value="QS"/>
<ItemData ItemOID="IT.USUBJID" Value="CDISC01.100008"/>
<ItemData ItemOID="IT.QS.QSSEQ" Value="37"/>
<ItemData ItemOID="IT.QS.QSTESTCD" Value="CSDD09"/>
<ItemData ItemOID="IT.QS.QSTEST" Value="Appetite Loss"/>
<ItemData ItemOID="IT.QS.QSCAT" Value="CORNELL SCALE FOR DEPRESSION IN DEMENTIA (CSDD)"/>
<ItemData ItemOID="IT.QS.QSSCAT" Value="Physical Signs"/>
<ItemData ItemOID="IT.QS.QSORRES" Value="Absent"/>
<ItemData ItemOID="IT.QS.QSSTRESC" Value="0"/>
<ItemData ItemOID="IT.QS.QSSTRESN" Value="0"/>
<ItemData ItemOID="IT.QS.VISITNUM" Value="3"/>
<ItemData ItemOID="IT.QS.VISIT" Value="WEEK 2"/>
<ItemData ItemOID="IT.QS.VISITDY" Value="15"/>
<ItemData ItemOID="IT.QS.QSDTC" Value="2003-05-13"/>
<ItemData ItemOID="IT.QS.QSDY" Value="15"/>
<ItemData ItemOID="IT.QS.QSEVLINT" Value="-P1W"/>
</ItemGroupData>
<ItemGroupData ItemGroupOID="IG.QSCS" data:ItemGroupDataSeq="36">
<ItemData ItemOID="IT.STUDYID" Value="CDISC01"/>
<ItemData ItemOID="IT.QS.DOMAIN" Value="QS"/>
<ItemData ItemOID="IT.USUBJID" Value="CDISC01.100008"/>
<ItemData ItemOID="IT.QS.QSSEQ" Value="38"/>
<ItemData ItemOID="IT.QS.QSTESTCD" Value="CSDD09"/>
<ItemData ItemOID="IT.QS.QSTEST" Value="Appetite Loss"/>
<ItemData ItemOID="IT.QS.QSCAT" Value="CORNELL SCALE FOR DEPRESSION IN DEMENTIA (CSDD)"/>
<ItemData ItemOID="IT.QS.QSSCAT" Value="Physical Signs"/>
<ItemData ItemOID="IT.QS.QSORRES" Value="Mild or Intermittent"/>
<ItemData ItemOID="IT.QS.QSSTRESC" Value="1"/>
<ItemData ItemOID="IT.QS.QSSTRESN" Value="1"/>
<ItemData ItemOID="IT.QS.VISITNUM" Value="10"/>
<ItemData ItemOID="IT.QS.VISIT" Value="WEEK 24"/>
<ItemData ItemOID="IT.QS.VISITDY" Value="169"/>
<ItemData ItemOID="IT.QS.QSDTC" Value="2003-10-13"/>
<ItemData ItemOID="IT.QS.QSDY" Value="168"/>
<ItemData ItemOID="IT.QS.QSEVLINT" Value="-P1W"/>
</ItemGroupData>
<ItemGroupData ItemGroupOID="IG.QSCS" data:ItemGroupDataSeq="37">
<ItemData ItemOID="IT.STUDYID" Value="CDISC01"/>
<ItemData ItemOID="IT.QS.DOMAIN" Value="QS"/>
<ItemData ItemOID="IT.USUBJID" Value="CDISC01.100008"/>
<ItemData ItemOID="IT.QS.QSSEQ" Value="39"/>
<ItemData ItemOID="IT.QS.QSTESTCD" Value="CSDD10"/>
<ItemData ItemOID="IT.QS.QSTEST" Value="Weight Loss"/>
<ItemData ItemOID="IT.QS.QSCAT" Value="CORNELL SCALE FOR DEPRESSION IN DEMENTIA (CSDD)"/>
<ItemData ItemOID="IT.QS.QSSCAT" Value="Physical Signs"/>
<ItemData ItemOID="IT.QS.QSORRES" Value="Absent"/>
<ItemData ItemOID="IT.QS.QSSTRESC" Value="0"/>
<ItemData ItemOID="IT.QS.QSSTRESN" Value="0"/>
<ItemData ItemOID="IT.QS.VISITNUM" Value="1"/>
<ItemData ItemOID="IT.QS.VISIT" Value="SCREEN"/>
<ItemData ItemOID="IT.QS.VISITDY" Value="-13"/>
<ItemData ItemOID="IT.QS.QSDTC" Value="2003-04-15"/>
<ItemData ItemOID="IT.QS.QSDY" Value="-14"/>
<ItemData ItemOID="IT.QS.QSEVLINT" Value="-P1W"/>
</ItemGroupData>
<ItemGroupData ItemGroupOID="IG.QSCS" data:ItemGroupDataSeq="38">
<ItemData ItemOID="IT.STUDYID" Value="CDISC01"/>
<ItemData ItemOID="IT.QS.DOMAIN" Value="QS"/>
<ItemData ItemOID="IT.USUBJID" Value="CDISC01.100008"/>
<ItemData ItemOID="IT.QS.QSSEQ" Value="40"/>
<ItemData ItemOID="IT.QS.QSTESTCD" Value="CSDD10"/>
<ItemData ItemOID="IT.QS.QSTEST" Value="Weight Loss"/>
<ItemData ItemOID="IT.QS.QSCAT" Value="CORNELL SCALE FOR DEPRESSION IN DEMENTIA (CSDD)"/>
<ItemData ItemOID="IT.QS.QSSCAT" Value="Physical Signs"/>
<ItemData ItemOID="IT.QS.QSORRES" Value="Absent"/>
<ItemData ItemOID="IT.QS.QSSTRESC" Value="0"/>
<ItemData ItemOID="IT.QS.QSSTRESN" Value="0"/>
<ItemData ItemOID="IT.QS.QSBLFL" Value="Y"/>
<ItemData ItemOID="IT.QS.VISITNUM" Value="2"/>
<ItemData ItemOID="IT.QS.VISIT" Value="BASELINE"/>
<ItemData ItemOID="IT.QS.VISITDY" Value="1"/>
<ItemData ItemOID="IT.QS.QSDTC" Value="2003-04-29"/>
<ItemData ItemOID="IT.QS.QSDY" Value="1"/>
<ItemData ItemOID="IT.QS.QSEVLINT" Value="-P1W"/>
</ItemGroupData>
<ItemGroupData ItemGroupOID="IG.QSCS" data:ItemGroupDataSeq="39">
<ItemData ItemOID="IT.STUDYID" Value="CDISC01"/>
<ItemData ItemOID="IT.QS.DOMAIN" Value="QS"/>
<ItemData ItemOID="IT.USUBJID" Value="CDISC01.100008"/>
<ItemData ItemOID="IT.QS.QSSEQ" Value="41"/>
<ItemData ItemOID="IT.QS.QSTESTCD" Value="CSDD10"/>
<ItemData ItemOID="IT.QS.QSTEST" Value="Weight Loss"/>
<ItemData ItemOID="IT.QS.QSCAT" Value="CORNELL SCALE FOR DEPRESSION IN DEMENTIA (CSDD)"/>
<ItemData ItemOID="IT.QS.QSSCAT" Value="Physical Signs"/>
<ItemData ItemOID="IT.QS.QSORRES" Value="Absent"/>
<ItemData ItemOID="IT.QS.QSSTRESC" Value="0"/>
<ItemData ItemOID="IT.QS.QSSTRESN" Value="0"/>
<ItemData ItemOID="IT.QS.VISITNUM" Value="3"/>
<ItemData ItemOID="IT.QS.VISIT" Value="WEEK 2"/>
<ItemData ItemOID="IT.QS.VISITDY" Value="15"/>
<ItemData ItemOID="IT.QS.QSDTC" Value="2003-05-13"/>
<ItemData ItemOID="IT.QS.QSDY" Value="15"/>
<ItemData ItemOID="IT.QS.QSEVLINT" Value="-P1W"/>
</ItemGroupData>
<ItemGroupData ItemGroupOID="IG.QSCS" data:ItemGroupDataSeq="40">
<ItemData ItemOID="IT.STUDYID" Value="CDISC01"/>
<ItemData ItemOID="IT.QS.DOMAIN" Value="QS"/>
<ItemData ItemOID="IT.USUBJID" Value="CDISC01.100008"/>
<ItemData ItemOID="IT.QS.QSSEQ" Value="42"/>
<ItemData ItemOID="IT.QS.QSTESTCD" Value="CSDD10"/>
<ItemData ItemOID="IT.QS.QSTEST" Value="Weight Loss"/>
<ItemData ItemOID="IT.QS.QSCAT" Value="CORNELL SCALE FOR DEPRESSION IN DEMENTIA (CSDD)"/>
<ItemData ItemOID="IT.QS.QSSCAT" Value="Physical Signs"/>
<ItemData ItemOID="IT.QS.QSORRES" Value="Absent"/>
<ItemData ItemOID="IT.QS.QSSTRESC" Value="0"/>
<ItemData ItemOID="IT.QS.QSSTRESN" Value="0"/>
<ItemData ItemOID="IT.QS.VISITNUM" Value="10"/>
<ItemData ItemOID="IT.QS.VISIT" Value="WEEK 24"/>
<ItemData ItemOID="IT.QS.VISITDY" Value="169"/>
<ItemData ItemOID="IT.QS.QSDTC" Value="2003-10-13"/>
<ItemData ItemOID="IT.QS.QSDY" Value="168"/>
<ItemData ItemOID="IT.QS.QSEVLINT" Value="-P1W"/>
</ItemGroupData>
<ItemGroupData ItemGroupOID="IG.QSCS" data:ItemGroupDataSeq="41">
<ItemData ItemOID="IT.STUDYID" Value="CDISC01"/>
<ItemData ItemOID="IT.QS.DOMAIN" Value="QS"/>
<ItemData ItemOID="IT.USUBJID" Value="CDISC01.100008"/>
<ItemData ItemOID="IT.QS.QSSEQ" Value="43"/>
<ItemData ItemOID="IT.QS.QSTESTCD" Value="CSDD11"/>
<ItemData ItemOID="IT.QS.QSTEST" Value="Lack of Energy"/>
<ItemData ItemOID="IT.QS.QSCAT" Value="CORNELL SCALE FOR DEPRESSION IN DEMENTIA (CSDD)"/>
<ItemData ItemOID="IT.QS.QSSCAT" Value="Physical Signs"/>
<ItemData ItemOID="IT.QS.QSORRES" Value="Severe"/>
<ItemData ItemOID="IT.QS.QSSTRESC" Value="2"/>
<ItemData ItemOID="IT.QS.QSSTRESN" Value="2"/>
<ItemData ItemOID="IT.QS.VISITNUM" Value="1"/>
<ItemData ItemOID="IT.QS.VISIT" Value="SCREEN"/>
<ItemData ItemOID="IT.QS.VISITDY" Value="-13"/>
<ItemData ItemOID="IT.QS.QSDTC" Value="2003-04-15"/>
<ItemData ItemOID="IT.QS.QSDY" Value="-14"/>
<ItemData ItemOID="IT.QS.QSEVLINT" Value="-P1W"/>
</ItemGroupData>
<ItemGroupData ItemGroupOID="IG.QSCS" data:ItemGroupDataSeq="42">
<ItemData ItemOID="IT.STUDYID" Value="CDISC01"/>
<ItemData ItemOID="IT.QS.DOMAIN" Value="QS"/>
<ItemData ItemOID="IT.USUBJID" Value="CDISC01.100008"/>
<ItemData ItemOID="IT.QS.QSSEQ" Value="44"/>
<ItemData ItemOID="IT.QS.QSTESTCD" Value="CSDD11"/>
<ItemData ItemOID="IT.QS.QSTEST" Value="Lack of Energy"/>
<ItemData ItemOID="IT.QS.QSCAT" Value="CORNELL SCALE FOR DEPRESSION IN DEMENTIA (CSDD)"/>
<ItemData ItemOID="IT.QS.QSSCAT" Value="Physical Signs"/>
<ItemData ItemOID="IT.QS.QSORRES" Value="Mild or Intermittent"/>
<ItemData ItemOID="IT.QS.QSSTRESC" Value="1"/>
<ItemData ItemOID="IT.QS.QSSTRESN" Value="1"/>
<ItemData ItemOID="IT.QS.QSBLFL" Value="Y"/>
<ItemData ItemOID="IT.QS.VISITNUM" Value="2"/>
<ItemData ItemOID="IT.QS.VISIT" Value="BASELINE"/>
<ItemData ItemOID="IT.QS.VISITDY" Value="1"/>
<ItemData ItemOID="IT.QS.QSDTC" Value="2003-04-29"/>
<ItemData ItemOID="IT.QS.QSDY" Value="1"/>
<ItemData ItemOID="IT.QS.QSEVLINT" Value="-P1W"/>
</ItemGroupData>
<ItemGroupData ItemGroupOID="IG.QSCS" data:ItemGroupDataSeq="43">
<ItemData ItemOID="IT.STUDYID" Value="CDISC01"/>
<ItemData ItemOID="IT.QS.DOMAIN" Value="QS"/>
<ItemData ItemOID="IT.USUBJID" Value="CDISC01.100008"/>
<ItemData ItemOID="IT.QS.QSSEQ" Value="45"/>
<ItemData ItemOID="IT.QS.QSTESTCD" Value="CSDD11"/>
<ItemData ItemOID="IT.QS.QSTEST" Value="Lack of Energy"/>
<ItemData ItemOID="IT.QS.QSCAT" Value="CORNELL SCALE FOR DEPRESSION IN DEMENTIA (CSDD)"/>
<ItemData ItemOID="IT.QS.QSSCAT" Value="Physical Signs"/>
<ItemData ItemOID="IT.QS.QSORRES" Value="Mild or Intermittent"/>
<ItemData ItemOID="IT.QS.QSSTRESC" Value="1"/>
<ItemData ItemOID="IT.QS.QSSTRESN" Value="1"/>
<ItemData ItemOID="IT.QS.VISITNUM" Value="3"/>
<ItemData ItemOID="IT.QS.VISIT" Value="WEEK 2"/>
<ItemData ItemOID="IT.QS.VISITDY" Value="15"/>
<ItemData ItemOID="IT.QS.QSDTC" Value="2003-05-13"/>
<ItemData ItemOID="IT.QS.QSDY" Value="15"/>
<ItemData ItemOID="IT.QS.QSEVLINT" Value="-P1W"/>
</ItemGroupData>
<ItemGroupData ItemGroupOID="IG.QSCS" data:ItemGroupDataSeq="44">
<ItemData ItemOID="IT.STUDYID" Value="CDISC01"/>
<ItemData ItemOID="IT.QS.DOMAIN" Value="QS"/>
<ItemData ItemOID="IT.USUBJID" Value="CDISC01.100008"/>
<ItemData ItemOID="IT.QS.QSSEQ" Value="46"/>
<ItemData ItemOID="IT.QS.QSTESTCD" Value="CSDD11"/>
<ItemData ItemOID="IT.QS.QSTEST" Value="Lack of Energy"/>
<ItemData ItemOID="IT.QS.QSCAT" Value="CORNELL SCALE FOR DEPRESSION IN DEMENTIA (CSDD)"/>
<ItemData ItemOID="IT.QS.QSSCAT" Value="Physical Signs"/>
<ItemData ItemOID="IT.QS.QSORRES" Value="Absent"/>
<ItemData ItemOID="IT.QS.QSSTRESC" Value="0"/>
<ItemData ItemOID="IT.QS.QSSTRESN" Value="0"/>
<ItemData ItemOID="IT.QS.VISITNUM" Value="10"/>
<ItemData ItemOID="IT.QS.VISIT" Value="WEEK 24"/>
<ItemData ItemOID="IT.QS.VISITDY" Value="169"/>
<ItemData ItemOID="IT.QS.QSDTC" Value="2003-10-13"/>
<ItemData ItemOID="IT.QS.QSDY" Value="168"/>
<ItemData ItemOID="IT.QS.QSEVLINT" Value="-P1W"/>
</ItemGroupData>
<ItemGroupData ItemGroupOID="IG.QSCS" data:ItemGroupDataSeq="45">
<ItemData ItemOID="IT.STUDYID" Value="CDISC01"/>
<ItemData ItemOID="IT.QS.DOMAIN" Value="QS"/>
<ItemData ItemOID="IT.USUBJID" Value="CDISC01.100008"/>
<ItemData ItemOID="IT.QS.QSSEQ" Value="47"/>
<ItemData ItemOID="IT.QS.QSTESTCD" Value="CSDD12"/>
<ItemData ItemOID="IT.QS.QSTEST" Value="Diurnal Variation of Mood"/>
<ItemData ItemOID="IT.QS.QSCAT" Value="CORNELL SCALE FOR DEPRESSION IN DEMENTIA (CSDD)"/>
<ItemData ItemOID="IT.QS.QSSCAT" Value="Physical Signs"/>
<ItemData ItemOID="IT.QS.QSORRES" Value="Absent"/>
<ItemData ItemOID="IT.QS.QSSTRESC" Value="0"/>
<ItemData ItemOID="IT.QS.QSSTRESN" Value="0"/>
<ItemData ItemOID="IT.QS.VISITNUM" Value="1"/>
<ItemData ItemOID="IT.QS.VISIT" Value="SCREEN"/>
<ItemData ItemOID="IT.QS.VISITDY" Value="-13"/>
<ItemData ItemOID="IT.QS.QSDTC" Value="2003-04-15"/>
<ItemData ItemOID="IT.QS.QSDY" Value="-14"/>
<ItemData ItemOID="IT.QS.QSEVLINT" Value="-P1W"/>
</ItemGroupData>
<ItemGroupData ItemGroupOID="IG.QSCS" data:ItemGroupDataSeq="46">
<ItemData ItemOID="IT.STUDYID" Value="CDISC01"/>
<ItemData ItemOID="IT.QS.DOMAIN" Value="QS"/>
<ItemData ItemOID="IT.USUBJID" Value="CDISC01.100008"/>
<ItemData ItemOID="IT.QS.QSSEQ" Value="48"/>
<ItemData ItemOID="IT.QS.QSTESTCD" Value="CSDD12"/>
<ItemData ItemOID="IT.QS.QSTEST" Value="Diurnal Variation of Mood"/>
<ItemData ItemOID="IT.QS.QSCAT" Value="CORNELL SCALE FOR DEPRESSION IN DEMENTIA (CSDD)"/>
<ItemData ItemOID="IT.QS.QSSCAT" Value="Physical Signs"/>
<ItemData ItemOID="IT.QS.QSORRES" Value="Absent"/>
<ItemData ItemOID="IT.QS.QSSTRESC" Value="0"/>
<ItemData ItemOID="IT.QS.QSSTRESN" Value="0"/>
<ItemData ItemOID="IT.QS.QSBLFL" Value="Y"/>
<ItemData ItemOID="IT.QS.VISITNUM" Value="2"/>
<ItemData ItemOID="IT.QS.VISIT" Value="BASELINE"/>
<ItemData ItemOID="IT.QS.VISITDY" Value="1"/>
<ItemData ItemOID="IT.QS.QSDTC" Value="2003-04-29"/>
<ItemData ItemOID="IT.QS.QSDY" Value="1"/>
<ItemData ItemOID="IT.QS.QSEVLINT" Value="-P1W"/>
</ItemGroupData>
<ItemGroupData ItemGroupOID="IG.QSCS" data:ItemGroupDataSeq="47">
<ItemData ItemOID="IT.STUDYID" Value="CDISC01"/>
<ItemData ItemOID="IT.QS.DOMAIN" Value="QS"/>
<ItemData ItemOID="IT.USUBJID" Value="CDISC01.100008"/>
<ItemData ItemOID="IT.QS.QSSEQ" Value="49"/>
<ItemData ItemOID="IT.QS.QSTESTCD" Value="CSDD12"/>
<ItemData ItemOID="IT.QS.QSTEST" Value="Diurnal Variation of Mood"/>
<ItemData ItemOID="IT.QS.QSCAT" Value="CORNELL SCALE FOR DEPRESSION IN DEMENTIA (CSDD)"/>
<ItemData ItemOID="IT.QS.QSSCAT" Value="Physical Signs"/>
<ItemData ItemOID="IT.QS.QSORRES" Value="Mild or Intermittent"/>
<ItemData ItemOID="IT.QS.QSSTRESC" Value="1"/>
<ItemData ItemOID="IT.QS.QSSTRESN" Value="1"/>
<ItemData ItemOID="IT.QS.VISITNUM" Value="3"/>
<ItemData ItemOID="IT.QS.VISIT" Value="WEEK 2"/>
<ItemData ItemOID="IT.QS.VISITDY" Value="15"/>
<ItemData ItemOID="IT.QS.QSDTC" Value="2003-05-13"/>
<ItemData ItemOID="IT.QS.QSDY" Value="15"/>
<ItemData ItemOID="IT.QS.QSEVLINT" Value="-P1W"/>
</ItemGroupData>
<ItemGroupData ItemGroupOID="IG.QSCS" data:ItemGroupDataSeq="48">
<ItemData ItemOID="IT.STUDYID" Value="CDISC01"/>
<ItemData ItemOID="IT.QS.DOMAIN" Value="QS"/>
<ItemData ItemOID="IT.USUBJID" Value="CDISC01.100008"/>
<ItemData ItemOID="IT.QS.QSSEQ" Value="50"/>
<ItemData ItemOID="IT.QS.QSTESTCD" Value="CSDD12"/>
<ItemData ItemOID="IT.QS.QSTEST" Value="Diurnal Variation of Mood"/>
<ItemData ItemOID="IT.QS.QSCAT" Value="CORNELL SCALE FOR DEPRESSION IN DEMENTIA (CSDD)"/>
<ItemData ItemOID="IT.QS.QSSCAT" Value="Physical Signs"/>
<ItemData ItemOID="IT.QS.QSORRES" Value="Absent"/>
<ItemData ItemOID="IT.QS.QSSTRESC" Value="0"/>
<ItemData ItemOID="IT.QS.QSSTRESN" Value="0"/>
<ItemData ItemOID="IT.QS.VISITNUM" Value="10"/>
<ItemData ItemOID="IT.QS.VISIT" Value="WEEK 24"/>
<ItemData ItemOID="IT.QS.VISITDY" Value="169"/>
<ItemData ItemOID="IT.QS.QSDTC" Value="2003-10-13"/>
<ItemData ItemOID="IT.QS.QSDY" Value="168"/>
<ItemData ItemOID="IT.QS.QSEVLINT" Value="-P1W"/>
</ItemGroupData>
<ItemGroupData ItemGroupOID="IG.QSCS" data:ItemGroupDataSeq="49">
<ItemData ItemOID="IT.STUDYID" Value="CDISC01"/>
<ItemData ItemOID="IT.QS.DOMAIN" Value="QS"/>
<ItemData ItemOID="IT.USUBJID" Value="CDISC01.100008"/>
<ItemData ItemOID="IT.QS.QSSEQ" Value="51"/>
<ItemData ItemOID="IT.QS.QSTESTCD" Value="CSDD13"/>
<ItemData ItemOID="IT.QS.QSTEST" Value="Difficulty Falling Asleep"/>
<ItemData ItemOID="IT.QS.QSCAT" Value="CORNELL SCALE FOR DEPRESSION IN DEMENTIA (CSDD)"/>
<ItemData ItemOID="IT.QS.QSSCAT" Value="Physical Signs"/>
<ItemData ItemOID="IT.QS.QSORRES" Value="Mild or Intermittent"/>
<ItemData ItemOID="IT.QS.QSSTRESC" Value="1"/>
<ItemData ItemOID="IT.QS.QSSTRESN" Value="1"/>
<ItemData ItemOID="IT.QS.VISITNUM" Value="1"/>
<ItemData ItemOID="IT.QS.VISIT" Value="SCREEN"/>
<ItemData ItemOID="IT.QS.VISITDY" Value="-13"/>
<ItemData ItemOID="IT.QS.QSDTC" Value="2003-04-15"/>
<ItemData ItemOID="IT.QS.QSDY" Value="-14"/>
<ItemData ItemOID="IT.QS.QSEVLINT" Value="-P1W"/>
</ItemGroupData>
<ItemGroupData ItemGroupOID="IG.QSCS" data:ItemGroupDataSeq="50">
<ItemData ItemOID="IT.STUDYID" Value="CDISC01"/>
<ItemData ItemOID="IT.QS.DOMAIN" Value="QS"/>
<ItemData ItemOID="IT.USUBJID" Value="CDISC01.100008"/>
<ItemData ItemOID="IT.QS.QSSEQ" Value="52"/>
<ItemData ItemOID="IT.QS.QSTESTCD" Value="CSDD13"/>
<ItemData ItemOID="IT.QS.QSTEST" Value="Difficulty Falling Asleep"/>
<ItemData ItemOID="IT.QS.QSCAT" Value="CORNELL SCALE FOR DEPRESSION IN DEMENTIA (CSDD)"/>
<ItemData ItemOID="IT.QS.QSSCAT" Value="Physical Signs"/>
<ItemData ItemOID="IT.QS.QSORRES" Value="Mild or Intermittent"/>
<ItemData ItemOID="IT.QS.QSSTRESC" Value="1"/>
<ItemData ItemOID="IT.QS.QSSTRESN" Value="1"/>
<ItemData ItemOID="IT.QS.QSBLFL" Value="Y"/>
<ItemData ItemOID="IT.QS.VISITNUM" Value="2"/>
<ItemData ItemOID="IT.QS.VISIT" Value="BASELINE"/>
<ItemData ItemOID="IT.QS.VISITDY" Value="1"/>
<ItemData ItemOID="IT.QS.QSDTC" Value="2003-04-29"/>
<ItemData ItemOID="IT.QS.QSDY" Value="1"/>
<ItemData ItemOID="IT.QS.QSEVLINT" Value="-P1W"/>
</ItemGroupData>
<ItemGroupData ItemGroupOID="IG.QSCS" data:ItemGroupDataSeq="51">
<ItemData ItemOID="IT.STUDYID" Value="CDISC01"/>
<ItemData ItemOID="IT.QS.DOMAIN" Value="QS"/>
<ItemData ItemOID="IT.USUBJID" Value="CDISC01.100008"/>
<ItemData ItemOID="IT.QS.QSSEQ" Value="53"/>
<ItemData ItemOID="IT.QS.QSTESTCD" Value="CSDD13"/>
<ItemData ItemOID="IT.QS.QSTEST" Value="Difficulty Falling Asleep"/>
<ItemData ItemOID="IT.QS.QSCAT" Value="CORNELL SCALE FOR DEPRESSION IN DEMENTIA (CSDD)"/>
<ItemData ItemOID="IT.QS.QSSCAT" Value="Physical Signs"/>
<ItemData ItemOID="IT.QS.QSORRES" Value="Absent"/>
<ItemData ItemOID="IT.QS.QSSTRESC" Value="0"/>
<ItemData ItemOID="IT.QS.QSSTRESN" Value="0"/>
<ItemData ItemOID="IT.QS.VISITNUM" Value="3"/>
<ItemData ItemOID="IT.QS.VISIT" Value="WEEK 2"/>
<ItemData ItemOID="IT.QS.VISITDY" Value="15"/>
<ItemData ItemOID="IT.QS.QSDTC" Value="2003-05-13"/>
<ItemData ItemOID="IT.QS.QSDY" Value="15"/>
<ItemData ItemOID="IT.QS.QSEVLINT" Value="-P1W"/>
</ItemGroupData>
<ItemGroupData ItemGroupOID="IG.QSCS" data:ItemGroupDataSeq="52">
<ItemData ItemOID="IT.STUDYID" Value="CDISC01"/>
<ItemData ItemOID="IT.QS.DOMAIN" Value="QS"/>
<ItemData ItemOID="IT.USUBJID" Value="CDISC01.100008"/>
<ItemData ItemOID="IT.QS.QSSEQ" Value="54"/>
<ItemData ItemOID="IT.QS.QSTESTCD" Value="CSDD13"/>
<ItemData ItemOID="IT.QS.QSTEST" Value="Difficulty Falling Asleep"/>
<ItemData ItemOID="IT.QS.QSCAT" Value="CORNELL SCALE FOR DEPRESSION IN DEMENTIA (CSDD)"/>
<ItemData ItemOID="IT.QS.QSSCAT" Value="Physical Signs"/>
<ItemData ItemOID="IT.QS.QSORRES" Value="Absent"/>
<ItemData ItemOID="IT.QS.QSSTRESC" Value="0"/>
<ItemData ItemOID="IT.QS.QSSTRESN" Value="0"/>
<ItemData ItemOID="IT.QS.VISITNUM" Value="10"/>
<ItemData ItemOID="IT.QS.VISIT" Value="WEEK 24"/>
<ItemData ItemOID="IT.QS.VISITDY" Value="169"/>
<ItemData ItemOID="IT.QS.QSDTC" Value="2003-10-13"/>
<ItemData ItemOID="IT.QS.QSDY" Value="168"/>
<ItemData ItemOID="IT.QS.QSEVLINT" Value="-P1W"/>
</ItemGroupData>
<ItemGroupData ItemGroupOID="IG.QSCS" data:ItemGroupDataSeq="53">
<ItemData ItemOID="IT.STUDYID" Value="CDISC01"/>
<ItemData ItemOID="IT.QS.DOMAIN" Value="QS"/>
<ItemData ItemOID="IT.USUBJID" Value="CDISC01.100008"/>
<ItemData ItemOID="IT.QS.QSSEQ" Value="55"/>
<ItemData ItemOID="IT.QS.QSTESTCD" Value="CSDD14"/>
<ItemData ItemOID="IT.QS.QSTEST" Value="Multiple Awakenings During Sleep"/>
<ItemData ItemOID="IT.QS.QSCAT" Value="CORNELL SCALE FOR DEPRESSION IN DEMENTIA (CSDD)"/>
<ItemData ItemOID="IT.QS.QSSCAT" Value="Physical Signs"/>
<ItemData ItemOID="IT.QS.QSORRES" Value="Severe"/>
<ItemData ItemOID="IT.QS.QSSTRESC" Value="2"/>
<ItemData ItemOID="IT.QS.QSSTRESN" Value="2"/>
<ItemData ItemOID="IT.QS.VISITNUM" Value="1"/>
<ItemData ItemOID="IT.QS.VISIT" Value="SCREEN"/>
<ItemData ItemOID="IT.QS.VISITDY" Value="-13"/>
<ItemData ItemOID="IT.QS.QSDTC" Value="2003-04-15"/>
<ItemData ItemOID="IT.QS.QSDY" Value="-14"/>
<ItemData ItemOID="IT.QS.QSEVLINT" Value="-P1W"/>
</ItemGroupData>
<ItemGroupData ItemGroupOID="IG.QSCS" data:ItemGroupDataSeq="54">
<ItemData ItemOID="IT.STUDYID" Value="CDISC01"/>
<ItemData ItemOID="IT.QS.DOMAIN" Value="QS"/>
<ItemData ItemOID="IT.USUBJID" Value="CDISC01.100008"/>
<ItemData ItemOID="IT.QS.QSSEQ" Value="56"/>
<ItemData ItemOID="IT.QS.QSTESTCD" Value="CSDD14"/>
<ItemData ItemOID="IT.QS.QSTEST" Value="Multiple Awakenings During Sleep"/>
<ItemData ItemOID="IT.QS.QSCAT" Value="CORNELL SCALE FOR DEPRESSION IN DEMENTIA (CSDD)"/>
<ItemData ItemOID="IT.QS.QSSCAT" Value="Physical Signs"/>
<ItemData ItemOID="IT.QS.QSORRES" Value="Severe"/>
<ItemData ItemOID="IT.QS.QSSTRESC" Value="2"/>
<ItemData ItemOID="IT.QS.QSSTRESN" Value="2"/>
<ItemData ItemOID="IT.QS.QSBLFL" Value="Y"/>
<ItemData ItemOID="IT.QS.VISITNUM" Value="2"/>
<ItemData ItemOID="IT.QS.VISIT" Value="BASELINE"/>
<ItemData ItemOID="IT.QS.VISITDY" Value="1"/>
<ItemData ItemOID="IT.QS.QSDTC" Value="2003-04-29"/>
<ItemData ItemOID="IT.QS.QSDY" Value="1"/>
<ItemData ItemOID="IT.QS.QSEVLINT" Value="-P1W"/>
</ItemGroupData>
<ItemGroupData ItemGroupOID="IG.QSCS" data:ItemGroupDataSeq="55">
<ItemData ItemOID="IT.STUDYID" Value="CDISC01"/>
<ItemData ItemOID="IT.QS.DOMAIN" Value="QS"/>
<ItemData ItemOID="IT.USUBJID" Value="CDISC01.100008"/>
<ItemData ItemOID="IT.QS.QSSEQ" Value="57"/>
<ItemData ItemOID="IT.QS.QSTESTCD" Value="CSDD14"/>
<ItemData ItemOID="IT.QS.QSTEST" Value="Multiple Awakenings During Sleep"/>
<ItemData ItemOID="IT.QS.QSCAT" Value="CORNELL SCALE FOR DEPRESSION IN DEMENTIA (CSDD)"/>
<ItemData ItemOID="IT.QS.QSSCAT" Value="Physical Signs"/>
<ItemData ItemOID="IT.QS.QSORRES" Value="Absent"/>
<ItemData ItemOID="IT.QS.QSSTRESC" Value="0"/>
<ItemData ItemOID="IT.QS.QSSTRESN" Value="0"/>
<ItemData ItemOID="IT.QS.VISITNUM" Value="3"/>
<ItemData ItemOID="IT.QS.VISIT" Value="WEEK 2"/>
<ItemData ItemOID="IT.QS.VISITDY" Value="15"/>
<ItemData ItemOID="IT.QS.QSDTC" Value="2003-05-13"/>
<ItemData ItemOID="IT.QS.QSDY" Value="15"/>
<ItemData ItemOID="IT.QS.QSEVLINT" Value="-P1W"/>
</ItemGroupData>
<ItemGroupData ItemGroupOID="IG.QSCS" data:ItemGroupDataSeq="56">
<ItemData ItemOID="IT.STUDYID" Value="CDISC01"/>
<ItemData ItemOID="IT.QS.DOMAIN" Value="QS"/>
<ItemData ItemOID="IT.USUBJID" Value="CDISC01.100008"/>
<ItemData ItemOID="IT.QS.QSSEQ" Value="58"/>
<ItemData ItemOID="IT.QS.QSTESTCD" Value="CSDD14"/>
<ItemData ItemOID="IT.QS.QSTEST" Value="Multiple Awakenings During Sleep"/>
<ItemData ItemOID="IT.QS.QSCAT" Value="CORNELL SCALE FOR DEPRESSION IN DEMENTIA (CSDD)"/>
<ItemData ItemOID="IT.QS.QSSCAT" Value="Physical Signs"/>
<ItemData ItemOID="IT.QS.QSORRES" Value="Absent"/>
<ItemData ItemOID="IT.QS.QSSTRESC" Value="0"/>
<ItemData ItemOID="IT.QS.QSSTRESN" Value="0"/>
<ItemData ItemOID="IT.QS.VISITNUM" Value="10"/>
<ItemData ItemOID="IT.QS.VISIT" Value="WEEK 24"/>
<ItemData ItemOID="IT.QS.VISITDY" Value="169"/>
<ItemData ItemOID="IT.QS.QSDTC" Value="2003-10-13"/>
<ItemData ItemOID="IT.QS.QSDY" Value="168"/>
<ItemData ItemOID="IT.QS.QSEVLINT" Value="-P1W"/>
</ItemGroupData>
<ItemGroupData ItemGroupOID="IG.QSCS" data:ItemGroupDataSeq="57">
<ItemData ItemOID="IT.STUDYID" Value="CDISC01"/>
<ItemData ItemOID="IT.QS.DOMAIN" Value="QS"/>
<ItemData ItemOID="IT.USUBJID" Value="CDISC01.100008"/>
<ItemData ItemOID="IT.QS.QSSEQ" Value="59"/>
<ItemData ItemOID="IT.QS.QSTESTCD" Value="CSDD15"/>
<ItemData ItemOID="IT.QS.QSTEST" Value="Early Morning Awakening"/>
<ItemData ItemOID="IT.QS.QSCAT" Value="CORNELL SCALE FOR DEPRESSION IN DEMENTIA (CSDD)"/>
<ItemData ItemOID="IT.QS.QSSCAT" Value="Physical Signs"/>
<ItemData ItemOID="IT.QS.QSORRES" Value="Absent"/>
<ItemData ItemOID="IT.QS.QSSTRESC" Value="0"/>
<ItemData ItemOID="IT.QS.QSSTRESN" Value="0"/>
<ItemData ItemOID="IT.QS.VISITNUM" Value="1"/>
<ItemData ItemOID="IT.QS.VISIT" Value="SCREEN"/>
<ItemData ItemOID="IT.QS.VISITDY" Value="-13"/>
<ItemData ItemOID="IT.QS.QSDTC" Value="2003-04-15"/>
<ItemData ItemOID="IT.QS.QSDY" Value="-14"/>
<ItemData ItemOID="IT.QS.QSEVLINT" Value="-P1W"/>
</ItemGroupData>
<ItemGroupData ItemGroupOID="IG.QSCS" data:ItemGroupDataSeq="58">
<ItemData ItemOID="IT.STUDYID" Value="CDISC01"/>
<ItemData ItemOID="IT.QS.DOMAIN" Value="QS"/>
<ItemData ItemOID="IT.USUBJID" Value="CDISC01.100008"/>
<ItemData ItemOID="IT.QS.QSSEQ" Value="60"/>
<ItemData ItemOID="IT.QS.QSTESTCD" Value="CSDD15"/>
<ItemData ItemOID="IT.QS.QSTEST" Value="Early Morning Awakening"/>
<ItemData ItemOID="IT.QS.QSCAT" Value="CORNELL SCALE FOR DEPRESSION IN DEMENTIA (CSDD)"/>
<ItemData ItemOID="IT.QS.QSSCAT" Value="Physical Signs"/>
<ItemData ItemOID="IT.QS.QSORRES" Value="Absent"/>
<ItemData ItemOID="IT.QS.QSSTRESC" Value="0"/>
<ItemData ItemOID="IT.QS.QSSTRESN" Value="0"/>
<ItemData ItemOID="IT.QS.QSBLFL" Value="Y"/>
<ItemData ItemOID="IT.QS.VISITNUM" Value="2"/>
<ItemData ItemOID="IT.QS.VISIT" Value="BASELINE"/>
<ItemData ItemOID="IT.QS.VISITDY" Value="1"/>
<ItemData ItemOID="IT.QS.QSDTC" Value="2003-04-29"/>
<ItemData ItemOID="IT.QS.QSDY" Value="1"/>
<ItemData ItemOID="IT.QS.QSEVLINT" Value="-P1W"/>
</ItemGroupData>
<ItemGroupData ItemGroupOID="IG.QSCS" data:ItemGroupDataSeq="59">
<ItemData ItemOID="IT.STUDYID" Value="CDISC01"/>
<ItemData ItemOID="IT.QS.DOMAIN" Value="QS"/>
<ItemData ItemOID="IT.USUBJID" Value="CDISC01.100008"/>
<ItemData ItemOID="IT.QS.QSSEQ" Value="61"/>
<ItemData ItemOID="IT.QS.QSTESTCD" Value="CSDD15"/>
<ItemData ItemOID="IT.QS.QSTEST" Value="Early Morning Awakening"/>
<ItemData ItemOID="IT.QS.QSCAT" Value="CORNELL SCALE FOR DEPRESSION IN DEMENTIA (CSDD)"/>
<ItemData ItemOID="IT.QS.QSSCAT" Value="Physical Signs"/>
<ItemData ItemOID="IT.QS.QSORRES" Value="Absent"/>
<ItemData ItemOID="IT.QS.QSSTRESC" Value="0"/>
<ItemData ItemOID="IT.QS.QSSTRESN" Value="0"/>
<ItemData ItemOID="IT.QS.VISITNUM" Value="3"/>
<ItemData ItemOID="IT.QS.VISIT" Value="WEEK 2"/>
<ItemData ItemOID="IT.QS.VISITDY" Value="15"/>
<ItemData ItemOID="IT.QS.QSDTC" Value="2003-05-13"/>
<ItemData ItemOID="IT.QS.QSDY" Value="15"/>
<ItemData ItemOID="IT.QS.QSEVLINT" Value="-P1W"/>
</ItemGroupData>
<ItemGroupData ItemGroupOID="IG.QSCS" data:ItemGroupDataSeq="60">
<ItemData ItemOID="IT.STUDYID" Value="CDISC01"/>
<ItemData ItemOID="IT.QS.DOMAIN" Value="QS"/>
<ItemData ItemOID="IT.USUBJID" Value="CDISC01.100008"/>
<ItemData ItemOID="IT.QS.QSSEQ" Value="62"/>
<ItemData ItemOID="IT.QS.QSTESTCD" Value="CSDD15"/>
<ItemData ItemOID="IT.QS.QSTEST" Value="Early Morning Awakening"/>
<ItemData ItemOID="IT.QS.QSCAT" Value="CORNELL SCALE FOR DEPRESSION IN DEMENTIA (CSDD)"/>
<ItemData ItemOID="IT.QS.QSSCAT" Value="Physical Signs"/>
<ItemData ItemOID="IT.QS.QSORRES" Value="Mild or Intermittent"/>
<ItemData ItemOID="IT.QS.QSSTRESC" Value="1"/>
<ItemData ItemOID="IT.QS.QSSTRESN" Value="1"/>
<ItemData ItemOID="IT.QS.VISITNUM" Value="10"/>
<ItemData ItemOID="IT.QS.VISIT" Value="WEEK 24"/>
<ItemData ItemOID="IT.QS.VISITDY" Value="169"/>
<ItemData ItemOID="IT.QS.QSDTC" Value="2003-10-13"/>
<ItemData ItemOID="IT.QS.QSDY" Value="168"/>
<ItemData ItemOID="IT.QS.QSEVLINT" Value="-P1W"/>
</ItemGroupData>
<ItemGroupData ItemGroupOID="IG.QSCS" data:ItemGroupDataSeq="61">
<ItemData ItemOID="IT.STUDYID" Value="CDISC01"/>
<ItemData ItemOID="IT.QS.DOMAIN" Value="QS"/>
<ItemData ItemOID="IT.USUBJID" Value="CDISC01.100008"/>
<ItemData ItemOID="IT.QS.QSSEQ" Value="63"/>
<ItemData ItemOID="IT.QS.QSTESTCD" Value="CSDD16"/>
<ItemData ItemOID="IT.QS.QSTEST" Value="Suicide"/>
<ItemData ItemOID="IT.QS.QSCAT" Value="CORNELL SCALE FOR DEPRESSION IN DEMENTIA (CSDD)"/>
<ItemData ItemOID="IT.QS.QSSCAT" Value="Physical Signs"/>
<ItemData ItemOID="IT.QS.QSORRES" Value="Mild or Intermittent"/>
<ItemData ItemOID="IT.QS.QSSTRESC" Value="1"/>
<ItemData ItemOID="IT.QS.QSSTRESN" Value="1"/>
<ItemData ItemOID="IT.QS.VISITNUM" Value="1"/>
<ItemData ItemOID="IT.QS.VISIT" Value="SCREEN"/>
<ItemData ItemOID="IT.QS.VISITDY" Value="-13"/>
<ItemData ItemOID="IT.QS.QSDTC" Value="2003-04-15"/>
<ItemData ItemOID="IT.QS.QSDY" Value="-14"/>
<ItemData ItemOID="IT.QS.QSEVLINT" Value="-P1W"/>
</ItemGroupData>
<ItemGroupData ItemGroupOID="IG.QSCS" data:ItemGroupDataSeq="62">
<ItemData ItemOID="IT.STUDYID" Value="CDISC01"/>
<ItemData ItemOID="IT.QS.DOMAIN" Value="QS"/>
<ItemData ItemOID="IT.USUBJID" Value="CDISC01.100008"/>
<ItemData ItemOID="IT.QS.QSSEQ" Value="64"/>
<ItemData ItemOID="IT.QS.QSTESTCD" Value="CSDD16"/>
<ItemData ItemOID="IT.QS.QSTEST" Value="Suicide"/>
<ItemData ItemOID="IT.QS.QSCAT" Value="CORNELL SCALE FOR DEPRESSION IN DEMENTIA (CSDD)"/>
<ItemData ItemOID="IT.QS.QSSCAT" Value="Physical Signs"/>
<ItemData ItemOID="IT.QS.QSORRES" Value="Mild or Intermittent"/>
<ItemData ItemOID="IT.QS.QSSTRESC" Value="1"/>
<ItemData ItemOID="IT.QS.QSSTRESN" Value="1"/>
<ItemData ItemOID="IT.QS.QSBLFL" Value="Y"/>
<ItemData ItemOID="IT.QS.VISITNUM" Value="2"/>
<ItemData ItemOID="IT.QS.VISIT" Value="BASELINE"/>
<ItemData ItemOID="IT.QS.VISITDY" Value="1"/>
<ItemData ItemOID="IT.QS.QSDTC" Value="2003-04-29"/>
<ItemData ItemOID="IT.QS.QSDY" Value="1"/>
<ItemData ItemOID="IT.QS.QSEVLINT" Value="-P1W"/>
</ItemGroupData>
<ItemGroupData ItemGroupOID="IG.QSCS" data:ItemGroupDataSeq="63">
<ItemData ItemOID="IT.STUDYID" Value="CDISC01"/>
<ItemData ItemOID="IT.QS.DOMAIN" Value="QS"/>
<ItemData ItemOID="IT.USUBJID" Value="CDISC01.100008"/>
<ItemData ItemOID="IT.QS.QSSEQ" Value="65"/>
<ItemData ItemOID="IT.QS.QSTESTCD" Value="CSDD16"/>
<ItemData ItemOID="IT.QS.QSTEST" Value="Suicide"/>
<ItemData ItemOID="IT.QS.QSCAT" Value="CORNELL SCALE FOR DEPRESSION IN DEMENTIA (CSDD)"/>
<ItemData ItemOID="IT.QS.QSSCAT" Value="Physical Signs"/>
<ItemData ItemOID="IT.QS.QSORRES" Value="Absent"/>
<ItemData ItemOID="IT.QS.QSSTRESC" Value="0"/>
<ItemData ItemOID="IT.QS.QSSTRESN" Value="0"/>
<ItemData ItemOID="IT.QS.VISITNUM" Value="3"/>
<ItemData ItemOID="IT.QS.VISIT" Value="WEEK 2"/>
<ItemData ItemOID="IT.QS.VISITDY" Value="15"/>
<ItemData ItemOID="IT.QS.QSDTC" Value="2003-05-13"/>
<ItemData ItemOID="IT.QS.QSDY" Value="15"/>
<ItemData ItemOID="IT.QS.QSEVLINT" Value="-P1W"/>
</ItemGroupData>
<ItemGroupData ItemGroupOID="IG.QSCS" data:ItemGroupDataSeq="64">
<ItemData ItemOID="IT.STUDYID" Value="CDISC01"/>
<ItemData ItemOID="IT.QS.DOMAIN" Value="QS"/>
<ItemData ItemOID="IT.USUBJID" Value="CDISC01.100008"/>
<ItemData ItemOID="IT.QS.QSSEQ" Value="66"/>
<ItemData ItemOID="IT.QS.QSTESTCD" Value="CSDD16"/>
<ItemData ItemOID="IT.QS.QSTEST" Value="Suicide"/>
<ItemData ItemOID="IT.QS.QSCAT" Value="CORNELL SCALE FOR DEPRESSION IN DEMENTIA (CSDD)"/>
<ItemData ItemOID="IT.QS.QSSCAT" Value="Physical Signs"/>
<ItemData ItemOID="IT.QS.QSORRES" Value="Absent"/>
<ItemData ItemOID="IT.QS.QSSTRESC" Value="0"/>
<ItemData ItemOID="IT.QS.QSSTRESN" Value="0"/>
<ItemData ItemOID="IT.QS.VISITNUM" Value="10"/>
<ItemData ItemOID="IT.QS.VISIT" Value="WEEK 24"/>
<ItemData ItemOID="IT.QS.VISITDY" Value="169"/>
<ItemData ItemOID="IT.QS.QSDTC" Value="2003-10-13"/>
<ItemData ItemOID="IT.QS.QSDY" Value="168"/>
<ItemData ItemOID="IT.QS.QSEVLINT" Value="-P1W"/>
</ItemGroupData>
<ItemGroupData ItemGroupOID="IG.QSCS" data:ItemGroupDataSeq="65">
<ItemData ItemOID="IT.STUDYID" Value="CDISC01"/>
<ItemData ItemOID="IT.QS.DOMAIN" Value="QS"/>
<ItemData ItemOID="IT.USUBJID" Value="CDISC01.100008"/>
<ItemData ItemOID="IT.QS.QSSEQ" Value="67"/>
<ItemData ItemOID="IT.QS.QSTESTCD" Value="CSDD17"/>
<ItemData ItemOID="IT.QS.QSTEST" Value="Poor Self-Esteem"/>
<ItemData ItemOID="IT.QS.QSCAT" Value="CORNELL SCALE FOR DEPRESSION IN DEMENTIA (CSDD)"/>
<ItemData ItemOID="IT.QS.QSSCAT" Value="Physical Signs"/>
<ItemData ItemOID="IT.QS.QSORRES" Value="Absent"/>
<ItemData ItemOID="IT.QS.QSSTRESC" Value="0"/>
<ItemData ItemOID="IT.QS.QSSTRESN" Value="0"/>
<ItemData ItemOID="IT.QS.VISITNUM" Value="1"/>
<ItemData ItemOID="IT.QS.VISIT" Value="SCREEN"/>
<ItemData ItemOID="IT.QS.VISITDY" Value="-13"/>
<ItemData ItemOID="IT.QS.QSDTC" Value="2003-04-15"/>
<ItemData ItemOID="IT.QS.QSDY" Value="-14"/>
<ItemData ItemOID="IT.QS.QSEVLINT" Value="-P1W"/>
</ItemGroupData>
<ItemGroupData ItemGroupOID="IG.QSCS" data:ItemGroupDataSeq="66">
<ItemData ItemOID="IT.STUDYID" Value="CDISC01"/>
<ItemData ItemOID="IT.QS.DOMAIN" Value="QS"/>
<ItemData ItemOID="IT.USUBJID" Value="CDISC01.100008"/>
<ItemData ItemOID="IT.QS.QSSEQ" Value="68"/>
<ItemData ItemOID="IT.QS.QSTESTCD" Value="CSDD17"/>
<ItemData ItemOID="IT.QS.QSTEST" Value="Poor Self-Esteem"/>
<ItemData ItemOID="IT.QS.QSCAT" Value="CORNELL SCALE FOR DEPRESSION IN DEMENTIA (CSDD)"/>
<ItemData ItemOID="IT.QS.QSSCAT" Value="Physical Signs"/>
<ItemData ItemOID="IT.QS.QSORRES" Value="Mild or Intermittent"/>
<ItemData ItemOID="IT.QS.QSSTRESC" Value="1"/>
<ItemData ItemOID="IT.QS.QSSTRESN" Value="1"/>
<ItemData ItemOID="IT.QS.QSBLFL" Value="Y"/>
<ItemData ItemOID="IT.QS.VISITNUM" Value="2"/>
<ItemData ItemOID="IT.QS.VISIT" Value="BASELINE"/>
<ItemData ItemOID="IT.QS.VISITDY" Value="1"/>
<ItemData ItemOID="IT.QS.QSDTC" Value="2003-04-29"/>
<ItemData ItemOID="IT.QS.QSDY" Value="1"/>
<ItemData ItemOID="IT.QS.QSEVLINT" Value="-P1W"/>
</ItemGroupData>
<ItemGroupData ItemGroupOID="IG.QSCS" data:ItemGroupDataSeq="67">
<ItemData ItemOID="IT.STUDYID" Value="CDISC01"/>
<ItemData ItemOID="IT.QS.DOMAIN" Value="QS"/>
<ItemData ItemOID="IT.USUBJID" Value="CDISC01.100008"/>
<ItemData ItemOID="IT.QS.QSSEQ" Value="69"/>
<ItemData ItemOID="IT.QS.QSTESTCD" Value="CSDD17"/>
<ItemData ItemOID="IT.QS.QSTEST" Value="Poor Self-Esteem"/>
<ItemData ItemOID="IT.QS.QSCAT" Value="CORNELL SCALE FOR DEPRESSION IN DEMENTIA (CSDD)"/>
<ItemData ItemOID="IT.QS.QSSCAT" Value="Physical Signs"/>
<ItemData ItemOID="IT.QS.QSORRES" Value="Absent"/>
<ItemData ItemOID="IT.QS.QSSTRESC" Value="0"/>
<ItemData ItemOID="IT.QS.QSSTRESN" Value="0"/>
<ItemData ItemOID="IT.QS.VISITNUM" Value="3"/>
<ItemData ItemOID="IT.QS.VISIT" Value="WEEK 2"/>
<ItemData ItemOID="IT.QS.VISITDY" Value="15"/>
<ItemData ItemOID="IT.QS.QSDTC" Value="2003-05-13"/>
<ItemData ItemOID="IT.QS.QSDY" Value="15"/>
<ItemData ItemOID="IT.QS.QSEVLINT" Value="-P1W"/>
</ItemGroupData>
<ItemGroupData ItemGroupOID="IG.QSCS" data:ItemGroupDataSeq="68">
<ItemData ItemOID="IT.STUDYID" Value="CDISC01"/>
<ItemData ItemOID="IT.QS.DOMAIN" Value="QS"/>
<ItemData ItemOID="IT.USUBJID" Value="CDISC01.100008"/>
<ItemData ItemOID="IT.QS.QSSEQ" Value="70"/>
<ItemData ItemOID="IT.QS.QSTESTCD" Value="CSDD17"/>
<ItemData ItemOID="IT.QS.QSTEST" Value="Poor Self-Esteem"/>
<ItemData ItemOID="IT.QS.QSCAT" Value="CORNELL SCALE FOR DEPRESSION IN DEMENTIA (CSDD)"/>
<ItemData ItemOID="IT.QS.QSSCAT" Value="Physical Signs"/>
<ItemData ItemOID="IT.QS.QSORRES" Value="Absent"/>
<ItemData ItemOID="IT.QS.QSSTRESC" Value="0"/>
<ItemData ItemOID="IT.QS.QSSTRESN" Value="0"/>
<ItemData ItemOID="IT.QS.VISITNUM" Value="10"/>
<ItemData ItemOID="IT.QS.VISIT" Value="WEEK 24"/>
<ItemData ItemOID="IT.QS.VISITDY" Value="169"/>
<ItemData ItemOID="IT.QS.QSDTC" Value="2003-10-13"/>
<ItemData ItemOID="IT.QS.QSDY" Value="168"/>
<ItemData ItemOID="IT.QS.QSEVLINT" Value="-P1W"/>
</ItemGroupData>
<ItemGroupData ItemGroupOID="IG.QSCS" data:ItemGroupDataSeq="69">
<ItemData ItemOID="IT.STUDYID" Value="CDISC01"/>
<ItemData ItemOID="IT.QS.DOMAIN" Value="QS"/>
<ItemData ItemOID="IT.USUBJID" Value="CDISC01.100008"/>
<ItemData ItemOID="IT.QS.QSSEQ" Value="71"/>
<ItemData ItemOID="IT.QS.QSTESTCD" Value="CSDD18"/>
<ItemData ItemOID="IT.QS.QSTEST" Value="Pessimism"/>
<ItemData ItemOID="IT.QS.QSCAT" Value="CORNELL SCALE FOR DEPRESSION IN DEMENTIA (CSDD)"/>
<ItemData ItemOID="IT.QS.QSSCAT" Value="Physical Signs"/>
<ItemData ItemOID="IT.QS.QSORRES" Value="Mild or Intermittent"/>
<ItemData ItemOID="IT.QS.QSSTRESC" Value="1"/>
<ItemData ItemOID="IT.QS.QSSTRESN" Value="1"/>
<ItemData ItemOID="IT.QS.VISITNUM" Value="1"/>
<ItemData ItemOID="IT.QS.VISIT" Value="SCREEN"/>
<ItemData ItemOID="IT.QS.VISITDY" Value="-13"/>
<ItemData ItemOID="IT.QS.QSDTC" Value="2003-04-15"/>
<ItemData ItemOID="IT.QS.QSDY" Value="-14"/>
<ItemData ItemOID="IT.QS.QSEVLINT" Value="-P1W"/>
</ItemGroupData>
<ItemGroupData ItemGroupOID="IG.QSCS" data:ItemGroupDataSeq="70">
<ItemData ItemOID="IT.STUDYID" Value="CDISC01"/>
<ItemData ItemOID="IT.QS.DOMAIN" Value="QS"/>
<ItemData ItemOID="IT.USUBJID" Value="CDISC01.100008"/>
<ItemData ItemOID="IT.QS.QSSEQ" Value="72"/>
<ItemData ItemOID="IT.QS.QSTESTCD" Value="CSDD18"/>
<ItemData ItemOID="IT.QS.QSTEST" Value="Pessimism"/>
<ItemData ItemOID="IT.QS.QSCAT" Value="CORNELL SCALE FOR DEPRESSION IN DEMENTIA (CSDD)"/>
<ItemData ItemOID="IT.QS.QSSCAT" Value="Physical Signs"/>
<ItemData ItemOID="IT.QS.QSORRES" Value="Mild or Intermittent"/>
<ItemData ItemOID="IT.QS.QSSTRESC" Value="1"/>
<ItemData ItemOID="IT.QS.QSSTRESN" Value="1"/>
<ItemData ItemOID="IT.QS.QSBLFL" Value="Y"/>
<ItemData ItemOID="IT.QS.VISITNUM" Value="2"/>
<ItemData ItemOID="IT.QS.VISIT" Value="BASELINE"/>
<ItemData ItemOID="IT.QS.VISITDY" Value="1"/>
<ItemData ItemOID="IT.QS.QSDTC" Value="2003-04-29"/>
<ItemData ItemOID="IT.QS.QSDY" Value="1"/>
<ItemData ItemOID="IT.QS.QSEVLINT" Value="-P1W"/>
</ItemGroupData>
<ItemGroupData ItemGroupOID="IG.QSCS" data:ItemGroupDataSeq="71">
<ItemData ItemOID="IT.STUDYID" Value="CDISC01"/>
<ItemData ItemOID="IT.QS.DOMAIN" Value="QS"/>
<ItemData ItemOID="IT.USUBJID" Value="CDISC01.100008"/>
<ItemData ItemOID="IT.QS.QSSEQ" Value="73"/>
<ItemData ItemOID="IT.QS.QSTESTCD" Value="CSDD18"/>
<ItemData ItemOID="IT.QS.QSTEST" Value="Pessimism"/>
<ItemData ItemOID="IT.QS.QSCAT" Value="CORNELL SCALE FOR DEPRESSION IN DEMENTIA (CSDD)"/>
<ItemData ItemOID="IT.QS.QSSCAT" Value="Physical Signs"/>
<ItemData ItemOID="IT.QS.QSORRES" Value="Mild or Intermittent"/>
<ItemData ItemOID="IT.QS.QSSTRESC" Value="1"/>
<ItemData ItemOID="IT.QS.QSSTRESN" Value="1"/>
<ItemData ItemOID="IT.QS.VISITNUM" Value="3"/>
<ItemData ItemOID="IT.QS.VISIT" Value="WEEK 2"/>
<ItemData ItemOID="IT.QS.VISITDY" Value="15"/>
<ItemData ItemOID="IT.QS.QSDTC" Value="2003-05-13"/>
<ItemData ItemOID="IT.QS.QSDY" Value="15"/>
<ItemData ItemOID="IT.QS.QSEVLINT" Value="-P1W"/>
</ItemGroupData>
<ItemGroupData ItemGroupOID="IG.QSCS" data:ItemGroupDataSeq="72">
<ItemData ItemOID="IT.STUDYID" Value="CDISC01"/>
<ItemData ItemOID="IT.QS.DOMAIN" Value="QS"/>
<ItemData ItemOID="IT.USUBJID" Value="CDISC01.100008"/>
<ItemData ItemOID="IT.QS.QSSEQ" Value="74"/>
<ItemData ItemOID="IT.QS.QSTESTCD" Value="CSDD18"/>
<ItemData ItemOID="IT.QS.QSTEST" Value="Pessimism"/>
<ItemData ItemOID="IT.QS.QSCAT" Value="CORNELL SCALE FOR DEPRESSION IN DEMENTIA (CSDD)"/>
<ItemData ItemOID="IT.QS.QSSCAT" Value="Physical Signs"/>
<ItemData ItemOID="IT.QS.QSORRES" Value="Mild or Intermittent"/>
<ItemData ItemOID="IT.QS.QSSTRESC" Value="1"/>
<ItemData ItemOID="IT.QS.QSSTRESN" Value="1"/>
<ItemData ItemOID="IT.QS.VISITNUM" Value="10"/>
<ItemData ItemOID="IT.QS.VISIT" Value="WEEK 24"/>
<ItemData ItemOID="IT.QS.VISITDY" Value="169"/>
<ItemData ItemOID="IT.QS.QSDTC" Value="2003-10-13"/>
<ItemData ItemOID="IT.QS.QSDY" Value="168"/>
<ItemData ItemOID="IT.QS.QSEVLINT" Value="-P1W"/>
</ItemGroupData>
<ItemGroupData ItemGroupOID="IG.QSCS" data:ItemGroupDataSeq="73">
<ItemData ItemOID="IT.STUDYID" Value="CDISC01"/>
<ItemData ItemOID="IT.QS.DOMAIN" Value="QS"/>
<ItemData ItemOID="IT.USUBJID" Value="CDISC01.100008"/>
<ItemData ItemOID="IT.QS.QSSEQ" Value="75"/>
<ItemData ItemOID="IT.QS.QSTESTCD" Value="CSDD19"/>
<ItemData ItemOID="IT.QS.QSTEST" Value="Mood-Congruent Delusions"/>
<ItemData ItemOID="IT.QS.QSCAT" Value="CORNELL SCALE FOR DEPRESSION IN DEMENTIA (CSDD)"/>
<ItemData ItemOID="IT.QS.QSSCAT" Value="Physical Signs"/>
<ItemData ItemOID="IT.QS.QSORRES" Value="Absent"/>
<ItemData ItemOID="IT.QS.QSSTRESC" Value="0"/>
<ItemData ItemOID="IT.QS.QSSTRESN" Value="0"/>
<ItemData ItemOID="IT.QS.VISITNUM" Value="1"/>
<ItemData ItemOID="IT.QS.VISIT" Value="SCREEN"/>
<ItemData ItemOID="IT.QS.VISITDY" Value="-13"/>
<ItemData ItemOID="IT.QS.QSDTC" Value="2003-04-15"/>
<ItemData ItemOID="IT.QS.QSDY" Value="-14"/>
<ItemData ItemOID="IT.QS.QSEVLINT" Value="-P1W"/>
</ItemGroupData>
<ItemGroupData ItemGroupOID="IG.QSCS" data:ItemGroupDataSeq="74">
<ItemData ItemOID="IT.STUDYID" Value="CDISC01"/>
<ItemData ItemOID="IT.QS.DOMAIN" Value="QS"/>
<ItemData ItemOID="IT.USUBJID" Value="CDISC01.100008"/>
<ItemData ItemOID="IT.QS.QSSEQ" Value="76"/>
<ItemData ItemOID="IT.QS.QSTESTCD" Value="CSDD19"/>
<ItemData ItemOID="IT.QS.QSTEST" Value="Mood-Congruent Delusions"/>
<ItemData ItemOID="IT.QS.QSCAT" Value="CORNELL SCALE FOR DEPRESSION IN DEMENTIA (CSDD)"/>
<ItemData ItemOID="IT.QS.QSSCAT" Value="Physical Signs"/>
<ItemData ItemOID="IT.QS.QSORRES" Value="Absent"/>
<ItemData ItemOID="IT.QS.QSSTRESC" Value="0"/>
<ItemData ItemOID="IT.QS.QSSTRESN" Value="0"/>
<ItemData ItemOID="IT.QS.QSBLFL" Value="Y"/>
<ItemData ItemOID="IT.QS.VISITNUM" Value="2"/>
<ItemData ItemOID="IT.QS.VISIT" Value="BASELINE"/>
<ItemData ItemOID="IT.QS.VISITDY" Value="1"/>
<ItemData ItemOID="IT.QS.QSDTC" Value="2003-04-29"/>
<ItemData ItemOID="IT.QS.QSDY" Value="1"/>
<ItemData ItemOID="IT.QS.QSEVLINT" Value="-P1W"/>
</ItemGroupData>
<ItemGroupData ItemGroupOID="IG.QSCS" data:ItemGroupDataSeq="75">
<ItemData ItemOID="IT.STUDYID" Value="CDISC01"/>
<ItemData ItemOID="IT.QS.DOMAIN" Value="QS"/>
<ItemData ItemOID="IT.USUBJID" Value="CDISC01.100008"/>
<ItemData ItemOID="IT.QS.QSSEQ" Value="77"/>
<ItemData ItemOID="IT.QS.QSTESTCD" Value="CSDD19"/>
<ItemData ItemOID="IT.QS.QSTEST" Value="Mood-Congruent Delusions"/>
<ItemData ItemOID="IT.QS.QSCAT" Value="CORNELL SCALE FOR DEPRESSION IN DEMENTIA (CSDD)"/>
<ItemData ItemOID="IT.QS.QSSCAT" Value="Physical Signs"/>
<ItemData ItemOID="IT.QS.QSORRES" Value="Absent"/>
<ItemData ItemOID="IT.QS.QSSTRESC" Value="0"/>
<ItemData ItemOID="IT.QS.QSSTRESN" Value="0"/>
<ItemData ItemOID="IT.QS.VISITNUM" Value="3"/>
<ItemData ItemOID="IT.QS.VISIT" Value="WEEK 2"/>
<ItemData ItemOID="IT.QS.VISITDY" Value="15"/>
<ItemData ItemOID="IT.QS.QSDTC" Value="2003-05-13"/>
<ItemData ItemOID="IT.QS.QSDY" Value="15"/>
<ItemData ItemOID="IT.QS.QSEVLINT" Value="-P1W"/>
</ItemGroupData>
<ItemGroupData ItemGroupOID="IG.QSCS" data:ItemGroupDataSeq="76">
<ItemData ItemOID="IT.STUDYID" Value="CDISC01"/>
<ItemData ItemOID="IT.QS.DOMAIN" Value="QS"/>
<ItemData ItemOID="IT.USUBJID" Value="CDISC01.100008"/>
<ItemData ItemOID="IT.QS.QSSEQ" Value="78"/>
<ItemData ItemOID="IT.QS.QSTESTCD" Value="CSDD19"/>
<ItemData ItemOID="IT.QS.QSTEST" Value="Mood-Congruent Delusions"/>
<ItemData ItemOID="IT.QS.QSCAT" Value="CORNELL SCALE FOR DEPRESSION IN DEMENTIA (CSDD)"/>
<ItemData ItemOID="IT.QS.QSSCAT" Value="Physical Signs"/>
<ItemData ItemOID="IT.QS.QSORRES" Value="Absent"/>
<ItemData ItemOID="IT.QS.QSSTRESC" Value="0"/>
<ItemData ItemOID="IT.QS.QSSTRESN" Value="0"/>
<ItemData ItemOID="IT.QS.VISITNUM" Value="10"/>
<ItemData ItemOID="IT.QS.VISIT" Value="WEEK 24"/>
<ItemData ItemOID="IT.QS.VISITDY" Value="169"/>
<ItemData ItemOID="IT.QS.QSDTC" Value="2003-10-13"/>
<ItemData ItemOID="IT.QS.QSDY" Value="168"/>
<ItemData ItemOID="IT.QS.QSEVLINT" Value="-P1W"/>
</ItemGroupData>
<ItemGroupData ItemGroupOID="IG.QSCS" data:ItemGroupDataSeq="77">
<ItemData ItemOID="IT.STUDYID" Value="CDISC01"/>
<ItemData ItemOID="IT.QS.DOMAIN" Value="QS"/>
<ItemData ItemOID="IT.USUBJID" Value="CDISC01.100014"/>
<ItemData ItemOID="IT.QS.QSSEQ" Value="3"/>
<ItemData ItemOID="IT.QS.QSTESTCD" Value="CSDD01"/>
<ItemData ItemOID="IT.QS.QSTEST" Value="Anxiety"/>
<ItemData ItemOID="IT.QS.QSCAT" Value="CORNELL SCALE FOR DEPRESSION IN DEMENTIA (CSDD)"/>
<ItemData ItemOID="IT.QS.QSORRES" Value="Severe"/>
<ItemData ItemOID="IT.QS.QSSTRESC" Value="2"/>
<ItemData ItemOID="IT.QS.QSSTRESN" Value="2"/>
<ItemData ItemOID="IT.QS.VISITNUM" Value="1"/>
<ItemData ItemOID="IT.QS.VISIT" Value="SCREEN"/>
<ItemData ItemOID="IT.QS.VISITDY" Value="-13"/>
<ItemData ItemOID="IT.QS.QSDTC" Value="2003-10-06"/>
<ItemData ItemOID="IT.QS.QSDY" Value="-9"/>
<ItemData ItemOID="IT.QS.QSEVLINT" Value="-P1W"/>
</ItemGroupData>
<ItemGroupData ItemGroupOID="IG.QSCS" data:ItemGroupDataSeq="78">
<ItemData ItemOID="IT.STUDYID" Value="CDISC01"/>
<ItemData ItemOID="IT.QS.DOMAIN" Value="QS"/>
<ItemData ItemOID="IT.USUBJID" Value="CDISC01.100014"/>
<ItemData ItemOID="IT.QS.QSSEQ" Value="4"/>
<ItemData ItemOID="IT.QS.QSTESTCD" Value="CSDD01"/>
<ItemData ItemOID="IT.QS.QSTEST" Value="Anxiety"/>
<ItemData ItemOID="IT.QS.QSCAT" Value="CORNELL SCALE FOR DEPRESSION IN DEMENTIA (CSDD)"/>
<ItemData ItemOID="IT.QS.QSORRES" Value="Severe"/>
<ItemData ItemOID="IT.QS.QSSTRESC" Value="2"/>
<ItemData ItemOID="IT.QS.QSSTRESN" Value="2"/>
<ItemData ItemOID="IT.QS.QSBLFL" Value="Y"/>
<ItemData ItemOID="IT.QS.VISITNUM" Value="2"/>
<ItemData ItemOID="IT.QS.VISIT" Value="BASELINE"/>
<ItemData ItemOID="IT.QS.VISITDY" Value="1"/>
<ItemData ItemOID="IT.QS.QSDTC" Value="2003-10-15"/>
<ItemData ItemOID="IT.QS.QSDY" Value="1"/>
<ItemData ItemOID="IT.QS.QSEVLINT" Value="-P1W"/>
</ItemGroupData>
<ItemGroupData ItemGroupOID="IG.QSCS" data:ItemGroupDataSeq="79">
<ItemData ItemOID="IT.STUDYID" Value="CDISC01"/>
<ItemData ItemOID="IT.QS.DOMAIN" Value="QS"/>
<ItemData ItemOID="IT.USUBJID" Value="CDISC01.100014"/>
<ItemData ItemOID="IT.QS.QSSEQ" Value="5"/>
<ItemData ItemOID="IT.QS.QSTESTCD" Value="CSDD01"/>
<ItemData ItemOID="IT.QS.QSTEST" Value="Anxiety"/>
<ItemData ItemOID="IT.QS.QSCAT" Value="CORNELL SCALE FOR DEPRESSION IN DEMENTIA (CSDD)"/>
<ItemData ItemOID="IT.QS.QSORRES" Value="Mild or Intermittent"/>
<ItemData ItemOID="IT.QS.QSSTRESC" Value="1"/>
<ItemData ItemOID="IT.QS.QSSTRESN" Value="1"/>
<ItemData ItemOID="IT.QS.VISITNUM" Value="3"/>
<ItemData ItemOID="IT.QS.VISIT" Value="WEEK 2"/>
<ItemData ItemOID="IT.QS.VISITDY" Value="15"/>
<ItemData ItemOID="IT.QS.QSDTC" Value="2003-10-31"/>
<ItemData ItemOID="IT.QS.QSDY" Value="17"/>
<ItemData ItemOID="IT.QS.QSEVLINT" Value="-P1W"/>
</ItemGroupData>
<ItemGroupData ItemGroupOID="IG.QSCS" data:ItemGroupDataSeq="80">
<ItemData ItemOID="IT.STUDYID" Value="CDISC01"/>
<ItemData ItemOID="IT.QS.DOMAIN" Value="QS"/>
<ItemData ItemOID="IT.USUBJID" Value="CDISC01.100014"/>
<ItemData ItemOID="IT.QS.QSSEQ" Value="6"/>
<ItemData ItemOID="IT.QS.QSTESTCD" Value="CSDD01"/>
<ItemData ItemOID="IT.QS.QSTEST" Value="Anxiety"/>
<ItemData ItemOID="IT.QS.QSCAT" Value="CORNELL SCALE FOR DEPRESSION IN DEMENTIA (CSDD)"/>
<ItemData ItemOID="IT.QS.QSORRES" Value="Mild or Intermittent"/>
<ItemData ItemOID="IT.QS.QSSTRESC" Value="1"/>
<ItemData ItemOID="IT.QS.QSSTRESN" Value="1"/>
<ItemData ItemOID="IT.QS.VISITNUM" Value="10"/>
<ItemData ItemOID="IT.QS.VISIT" Value="WEEK 24"/>
<ItemData ItemOID="IT.QS.VISITDY" Value="169"/>
<ItemData ItemOID="IT.QS.QSDTC" Value="2004-03-30"/>
<ItemData ItemOID="IT.QS.QSDY" Value="168"/>
<ItemData ItemOID="IT.QS.QSEVLINT" Value="-P1W"/>
</ItemGroupData>
<ItemGroupData ItemGroupOID="IG.QSCS" data:ItemGroupDataSeq="81">
<ItemData ItemOID="IT.STUDYID" Value="CDISC01"/>
<ItemData ItemOID="IT.QS.DOMAIN" Value="QS"/>
<ItemData ItemOID="IT.USUBJID" Value="CDISC01.100014"/>
<ItemData ItemOID="IT.QS.QSSEQ" Value="7"/>
<ItemData ItemOID="IT.QS.QSTESTCD" Value="CSDD02"/>
<ItemData ItemOID="IT.QS.QSTEST" Value="Sadness"/>
<ItemData ItemOID="IT.QS.QSCAT" Value="CORNELL SCALE FOR DEPRESSION IN DEMENTIA (CSDD)"/>
<ItemData ItemOID="IT.QS.QSORRES" Value="Severe"/>
<ItemData ItemOID="IT.QS.QSSTRESC" Value="2"/>
<ItemData ItemOID="IT.QS.QSSTRESN" Value="2"/>
<ItemData ItemOID="IT.QS.VISITNUM" Value="1"/>
<ItemData ItemOID="IT.QS.VISIT" Value="SCREEN"/>
<ItemData ItemOID="IT.QS.VISITDY" Value="-13"/>
<ItemData ItemOID="IT.QS.QSDTC" Value="2003-10-06"/>
<ItemData ItemOID="IT.QS.QSDY" Value="-9"/>
<ItemData ItemOID="IT.QS.QSEVLINT" Value="-P1W"/>
</ItemGroupData>
<ItemGroupData ItemGroupOID="IG.QSCS" data:ItemGroupDataSeq="82">
<ItemData ItemOID="IT.STUDYID" Value="CDISC01"/>
<ItemData ItemOID="IT.QS.DOMAIN" Value="QS"/>
<ItemData ItemOID="IT.USUBJID" Value="CDISC01.100014"/>
<ItemData ItemOID="IT.QS.QSSEQ" Value="8"/>
<ItemData ItemOID="IT.QS.QSTESTCD" Value="CSDD02"/>
<ItemData ItemOID="IT.QS.QSTEST" Value="Sadness"/>
<ItemData ItemOID="IT.QS.QSCAT" Value="CORNELL SCALE FOR DEPRESSION IN DEMENTIA (CSDD)"/>
<ItemData ItemOID="IT.QS.QSORRES" Value="Severe"/>
<ItemData ItemOID="IT.QS.QSSTRESC" Value="2"/>
<ItemData ItemOID="IT.QS.QSSTRESN" Value="2"/>
<ItemData ItemOID="IT.QS.QSBLFL" Value="Y"/>
<ItemData ItemOID="IT.QS.VISITNUM" Value="2"/>
<ItemData ItemOID="IT.QS.VISIT" Value="BASELINE"/>
<ItemData ItemOID="IT.QS.VISITDY" Value="1"/>
<ItemData ItemOID="IT.QS.QSDTC" Value="2003-10-15"/>
<ItemData ItemOID="IT.QS.QSDY" Value="1"/>
<ItemData ItemOID="IT.QS.QSEVLINT" Value="-P1W"/>
</ItemGroupData>
<ItemGroupData ItemGroupOID="IG.QSCS" data:ItemGroupDataSeq="83">
<ItemData ItemOID="IT.STUDYID" Value="CDISC01"/>
<ItemData ItemOID="IT.QS.DOMAIN" Value="QS"/>
<ItemData ItemOID="IT.USUBJID" Value="CDISC01.100014"/>
<ItemData ItemOID="IT.QS.QSSEQ" Value="9"/>
<ItemData ItemOID="IT.QS.QSTESTCD" Value="CSDD02"/>
<ItemData ItemOID="IT.QS.QSTEST" Value="Sadness"/>
<ItemData ItemOID="IT.QS.QSCAT" Value="CORNELL SCALE FOR DEPRESSION IN DEMENTIA (CSDD)"/>
<ItemData ItemOID="IT.QS.QSORRES" Value="Mild or Intermittent"/>
<ItemData ItemOID="IT.QS.QSSTRESC" Value="1"/>
<ItemData ItemOID="IT.QS.QSSTRESN" Value="1"/>
<ItemData ItemOID="IT.QS.VISITNUM" Value="3"/>
<ItemData ItemOID="IT.QS.VISIT" Value="WEEK 2"/>
<ItemData ItemOID="IT.QS.VISITDY" Value="15"/>
<ItemData ItemOID="IT.QS.QSDTC" Value="2003-10-31"/>
<ItemData ItemOID="IT.QS.QSDY" Value="17"/>
<ItemData ItemOID="IT.QS.QSEVLINT" Value="-P1W"/>
</ItemGroupData>
<ItemGroupData ItemGroupOID="IG.QSCS" data:ItemGroupDataSeq="84">
<ItemData ItemOID="IT.STUDYID" Value="CDISC01"/>
<ItemData ItemOID="IT.QS.DOMAIN" Value="QS"/>
<ItemData ItemOID="IT.USUBJID" Value="CDISC01.100014"/>
<ItemData ItemOID="IT.QS.QSSEQ" Value="10"/>
<ItemData ItemOID="IT.QS.QSTESTCD" Value="CSDD02"/>
<ItemData ItemOID="IT.QS.QSTEST" Value="Sadness"/>
<ItemData ItemOID="IT.QS.QSCAT" Value="CORNELL SCALE FOR DEPRESSION IN DEMENTIA (CSDD)"/>
<ItemData ItemOID="IT.QS.QSORRES" Value="Severe"/>
<ItemData ItemOID="IT.QS.QSSTRESC" Value="2"/>
<ItemData ItemOID="IT.QS.QSSTRESN" Value="2"/>
<ItemData ItemOID="IT.QS.VISITNUM" Value="10"/>
<ItemData ItemOID="IT.QS.VISIT" Value="WEEK 24"/>
<ItemData ItemOID="IT.QS.VISITDY" Value="169"/>
<ItemData ItemOID="IT.QS.QSDTC" Value="2004-03-30"/>
<ItemData ItemOID="IT.QS.QSDY" Value="168"/>
<ItemData ItemOID="IT.QS.QSEVLINT" Value="-P1W"/>
</ItemGroupData>
<ItemGroupData ItemGroupOID="IG.QSCS" data:ItemGroupDataSeq="85">
<ItemData ItemOID="IT.STUDYID" Value="CDISC01"/>
<ItemData ItemOID="IT.QS.DOMAIN" Value="QS"/>
<ItemData ItemOID="IT.USUBJID" Value="CDISC01.100014"/>
<ItemData ItemOID="IT.QS.QSSEQ" Value="11"/>
<ItemData ItemOID="IT.QS.QSTESTCD" Value="CSDD03"/>
<ItemData ItemOID="IT.QS.QSTEST" Value="Lack of Reactivity to Pleasant Events"/>
<ItemData ItemOID="IT.QS.QSCAT" Value="CORNELL SCALE FOR DEPRESSION IN DEMENTIA (CSDD)"/>
<ItemData ItemOID="IT.QS.QSORRES" Value="Severe"/>
<ItemData ItemOID="IT.QS.QSSTRESC" Value="2"/>
<ItemData ItemOID="IT.QS.QSSTRESN" Value="2"/>
<ItemData ItemOID="IT.QS.VISITNUM" Value="1"/>
<ItemData ItemOID="IT.QS.VISIT" Value="SCREEN"/>
<ItemData ItemOID="IT.QS.VISITDY" Value="-13"/>
<ItemData ItemOID="IT.QS.QSDTC" Value="2003-10-06"/>
<ItemData ItemOID="IT.QS.QSDY" Value="-9"/>
<ItemData ItemOID="IT.QS.QSEVLINT" Value="-P1W"/>
</ItemGroupData>
<ItemGroupData ItemGroupOID="IG.QSCS" data:ItemGroupDataSeq="86">
<ItemData ItemOID="IT.STUDYID" Value="CDISC01"/>
<ItemData ItemOID="IT.QS.DOMAIN" Value="QS"/>
<ItemData ItemOID="IT.USUBJID" Value="CDISC01.100014"/>
<ItemData ItemOID="IT.QS.QSSEQ" Value="12"/>
<ItemData ItemOID="IT.QS.QSTESTCD" Value="CSDD03"/>
<ItemData ItemOID="IT.QS.QSTEST" Value="Lack of Reactivity to Pleasant Events"/>
<ItemData ItemOID="IT.QS.QSCAT" Value="CORNELL SCALE FOR DEPRESSION IN DEMENTIA (CSDD)"/>
<ItemData ItemOID="IT.QS.QSORRES" Value="Absent"/>
<ItemData ItemOID="IT.QS.QSSTRESC" Value="0"/>
<ItemData ItemOID="IT.QS.QSSTRESN" Value="0"/>
<ItemData ItemOID="IT.QS.QSBLFL" Value="Y"/>
<ItemData ItemOID="IT.QS.VISITNUM" Value="2"/>
<ItemData ItemOID="IT.QS.VISIT" Value="BASELINE"/>
<ItemData ItemOID="IT.QS.VISITDY" Value="1"/>
<ItemData ItemOID="IT.QS.QSDTC" Value="2003-10-15"/>
<ItemData ItemOID="IT.QS.QSDY" Value="1"/>
<ItemData ItemOID="IT.QS.QSEVLINT" Value="-P1W"/>
</ItemGroupData>
<ItemGroupData ItemGroupOID="IG.QSCS" data:ItemGroupDataSeq="87">
<ItemData ItemOID="IT.STUDYID" Value="CDISC01"/>
<ItemData ItemOID="IT.QS.DOMAIN" Value="QS"/>
<ItemData ItemOID="IT.USUBJID" Value="CDISC01.100014"/>
<ItemData ItemOID="IT.QS.QSSEQ" Value="13"/>
<ItemData ItemOID="IT.QS.QSTESTCD" Value="CSDD03"/>
<ItemData ItemOID="IT.QS.QSTEST" Value="Lack of Reactivity to Pleasant Events"/>
<ItemData ItemOID="IT.QS.QSCAT" Value="CORNELL SCALE FOR DEPRESSION IN DEMENTIA (CSDD)"/>
<ItemData ItemOID="IT.QS.QSORRES" Value="Absent"/>
<ItemData ItemOID="IT.QS.QSSTRESC" Value="0"/>
<ItemData ItemOID="IT.QS.QSSTRESN" Value="0"/>
<ItemData ItemOID="IT.QS.VISITNUM" Value="3"/>
<ItemData ItemOID="IT.QS.VISIT" Value="WEEK 2"/>
<ItemData ItemOID="IT.QS.VISITDY" Value="15"/>
<ItemData ItemOID="IT.QS.QSDTC" Value="2003-10-31"/>
<ItemData ItemOID="IT.QS.QSDY" Value="17"/>
<ItemData ItemOID="IT.QS.QSEVLINT" Value="-P1W"/>
</ItemGroupData>
<ItemGroupData ItemGroupOID="IG.QSCS" data:ItemGroupDataSeq="88">
<ItemData ItemOID="IT.STUDYID" Value="CDISC01"/>
<ItemData ItemOID="IT.QS.DOMAIN" Value="QS"/>
<ItemData ItemOID="IT.USUBJID" Value="CDISC01.100014"/>
<ItemData ItemOID="IT.QS.QSSEQ" Value="14"/>
<ItemData ItemOID="IT.QS.QSTESTCD" Value="CSDD03"/>
<ItemData ItemOID="IT.QS.QSTEST" Value="Lack of Reactivity to Pleasant Events"/>
<ItemData ItemOID="IT.QS.QSCAT" Value="CORNELL SCALE FOR DEPRESSION IN DEMENTIA (CSDD)"/>
<ItemData ItemOID="IT.QS.QSORRES" Value="Absent"/>
<ItemData ItemOID="IT.QS.QSSTRESC" Value="0"/>
<ItemData ItemOID="IT.QS.QSSTRESN" Value="0"/>
<ItemData ItemOID="IT.QS.VISITNUM" Value="10"/>
<ItemData ItemOID="IT.QS.VISIT" Value="WEEK 24"/>
<ItemData ItemOID="IT.QS.VISITDY" Value="169"/>
<ItemData ItemOID="IT.QS.QSDTC" Value="2004-03-30"/>
<ItemData ItemOID="IT.QS.QSDY" Value="168"/>
<ItemData ItemOID="IT.QS.QSEVLINT" Value="-P1W"/>
</ItemGroupData>
<ItemGroupData ItemGroupOID="IG.QSCS" data:ItemGroupDataSeq="89">
<ItemData ItemOID="IT.STUDYID" Value="CDISC01"/>
<ItemData ItemOID="IT.QS.DOMAIN" Value="QS"/>
<ItemData ItemOID="IT.USUBJID" Value="CDISC01.100014"/>
<ItemData ItemOID="IT.QS.QSSEQ" Value="15"/>
<ItemData ItemOID="IT.QS.QSTESTCD" Value="CSDD04"/>
<ItemData ItemOID="IT.QS.QSTEST" Value="Irritability"/>
<ItemData ItemOID="IT.QS.QSCAT" Value="CORNELL SCALE FOR DEPRESSION IN DEMENTIA (CSDD)"/>
<ItemData ItemOID="IT.QS.QSORRES" Value="Mild or Intermittent"/>
<ItemData ItemOID="IT.QS.QSSTRESC" Value="1"/>
<ItemData ItemOID="IT.QS.QSSTRESN" Value="1"/>
<ItemData ItemOID="IT.QS.VISITNUM" Value="1"/>
<ItemData ItemOID="IT.QS.VISIT" Value="SCREEN"/>
<ItemData ItemOID="IT.QS.VISITDY" Value="-13"/>
<ItemData ItemOID="IT.QS.QSDTC" Value="2003-10-06"/>
<ItemData ItemOID="IT.QS.QSDY" Value="-9"/>
<ItemData ItemOID="IT.QS.QSEVLINT" Value="-P1W"/>
</ItemGroupData>
<ItemGroupData ItemGroupOID="IG.QSCS" data:ItemGroupDataSeq="90">
<ItemData ItemOID="IT.STUDYID" Value="CDISC01"/>
<ItemData ItemOID="IT.QS.DOMAIN" Value="QS"/>
<ItemData ItemOID="IT.USUBJID" Value="CDISC01.100014"/>
<ItemData ItemOID="IT.QS.QSSEQ" Value="16"/>
<ItemData ItemOID="IT.QS.QSTESTCD" Value="CSDD04"/>
<ItemData ItemOID="IT.QS.QSTEST" Value="Irritability"/>
<ItemData ItemOID="IT.QS.QSCAT" Value="CORNELL SCALE FOR DEPRESSION IN DEMENTIA (CSDD)"/>
<ItemData ItemOID="IT.QS.QSORRES" Value="Mild or Intermittent"/>
<ItemData ItemOID="IT.QS.QSSTRESC" Value="1"/>
<ItemData ItemOID="IT.QS.QSSTRESN" Value="1"/>
<ItemData ItemOID="IT.QS.QSBLFL" Value="Y"/>
<ItemData ItemOID="IT.QS.VISITNUM" Value="2"/>
<ItemData ItemOID="IT.QS.VISIT" Value="BASELINE"/>
<ItemData ItemOID="IT.QS.VISITDY" Value="1"/>
<ItemData ItemOID="IT.QS.QSDTC" Value="2003-10-15"/>
<ItemData ItemOID="IT.QS.QSDY" Value="1"/>
<ItemData ItemOID="IT.QS.QSEVLINT" Value="-P1W"/>
</ItemGroupData>
<ItemGroupData ItemGroupOID="IG.QSCS" data:ItemGroupDataSeq="91">
<ItemData ItemOID="IT.STUDYID" Value="CDISC01"/>
<ItemData ItemOID="IT.QS.DOMAIN" Value="QS"/>
<ItemData ItemOID="IT.USUBJID" Value="CDISC01.100014"/>
<ItemData ItemOID="IT.QS.QSSEQ" Value="17"/>
<ItemData ItemOID="IT.QS.QSTESTCD" Value="CSDD04"/>
<ItemData ItemOID="IT.QS.QSTEST" Value="Irritability"/>
<ItemData ItemOID="IT.QS.QSCAT" Value="CORNELL SCALE FOR DEPRESSION IN DEMENTIA (CSDD)"/>
<ItemData ItemOID="IT.QS.QSORRES" Value="Mild or Intermittent"/>
<ItemData ItemOID="IT.QS.QSSTRESC" Value="1"/>
<ItemData ItemOID="IT.QS.QSSTRESN" Value="1"/>
<ItemData ItemOID="IT.QS.VISITNUM" Value="3"/>
<ItemData ItemOID="IT.QS.VISIT" Value="WEEK 2"/>
<ItemData ItemOID="IT.QS.VISITDY" Value="15"/>
<ItemData ItemOID="IT.QS.QSDTC" Value="2003-10-31"/>
<ItemData ItemOID="IT.QS.QSDY" Value="17"/>
<ItemData ItemOID="IT.QS.QSEVLINT" Value="-P1W"/>
</ItemGroupData>
<ItemGroupData ItemGroupOID="IG.QSCS" data:ItemGroupDataSeq="92">
<ItemData ItemOID="IT.STUDYID" Value="CDISC01"/>
<ItemData ItemOID="IT.QS.DOMAIN" Value="QS"/>
<ItemData ItemOID="IT.USUBJID" Value="CDISC01.100014"/>
<ItemData ItemOID="IT.QS.QSSEQ" Value="18"/>
<ItemData ItemOID="IT.QS.QSTESTCD" Value="CSDD04"/>
<ItemData ItemOID="IT.QS.QSTEST" Value="Irritability"/>
<ItemData ItemOID="IT.QS.QSCAT" Value="CORNELL SCALE FOR DEPRESSION IN DEMENTIA (CSDD)"/>
<ItemData ItemOID="IT.QS.QSORRES" Value="Absent"/>
<ItemData ItemOID="IT.QS.QSSTRESC" Value="0"/>
<ItemData ItemOID="IT.QS.QSSTRESN" Value="0"/>
<ItemData ItemOID="IT.QS.VISITNUM" Value="10"/>
<ItemData ItemOID="IT.QS.VISIT" Value="WEEK 24"/>
<ItemData ItemOID="IT.QS.VISITDY" Value="169"/>
<ItemData ItemOID="IT.QS.QSDTC" Value="2004-03-30"/>
<ItemData ItemOID="IT.QS.QSDY" Value="168"/>
<ItemData ItemOID="IT.QS.QSEVLINT" Value="-P1W"/>
</ItemGroupData>
<ItemGroupData ItemGroupOID="IG.QSCS" data:ItemGroupDataSeq="93">
<ItemData ItemOID="IT.STUDYID" Value="CDISC01"/>
<ItemData ItemOID="IT.QS.DOMAIN" Value="QS"/>
<ItemData ItemOID="IT.USUBJID" Value="CDISC01.100014"/>
<ItemData ItemOID="IT.QS.QSSEQ" Value="19"/>
<ItemData ItemOID="IT.QS.QSTESTCD" Value="CSDD05"/>
<ItemData ItemOID="IT.QS.QSTEST" Value="Agitation"/>
<ItemData ItemOID="IT.QS.QSCAT" Value="CORNELL SCALE FOR DEPRESSION IN DEMENTIA (CSDD)"/>
<ItemData ItemOID="IT.QS.QSORRES" Value="Mild or Intermittent"/>
<ItemData ItemOID="IT.QS.QSSTRESC" Value="1"/>
<ItemData ItemOID="IT.QS.QSSTRESN" Value="1"/>
<ItemData ItemOID="IT.QS.VISITNUM" Value="1"/>
<ItemData ItemOID="IT.QS.VISIT" Value="SCREEN"/>
<ItemData ItemOID="IT.QS.VISITDY" Value="-13"/>
<ItemData ItemOID="IT.QS.QSDTC" Value="2003-10-06"/>
<ItemData ItemOID="IT.QS.QSDY" Value="-9"/>
<ItemData ItemOID="IT.QS.QSEVLINT" Value="-P1W"/>
</ItemGroupData>
<ItemGroupData ItemGroupOID="IG.QSCS" data:ItemGroupDataSeq="94">
<ItemData ItemOID="IT.STUDYID" Value="CDISC01"/>
<ItemData ItemOID="IT.QS.DOMAIN" Value="QS"/>
<ItemData ItemOID="IT.USUBJID" Value="CDISC01.100014"/>
<ItemData ItemOID="IT.QS.QSSEQ" Value="20"/>
<ItemData ItemOID="IT.QS.QSTESTCD" Value="CSDD05"/>
<ItemData ItemOID="IT.QS.QSTEST" Value="Agitation"/>
<ItemData ItemOID="IT.QS.QSCAT" Value="CORNELL SCALE FOR DEPRESSION IN DEMENTIA (CSDD)"/>
<ItemData ItemOID="IT.QS.QSORRES" Value="Mild or Intermittent"/>
<ItemData ItemOID="IT.QS.QSSTRESC" Value="1"/>
<ItemData ItemOID="IT.QS.QSSTRESN" Value="1"/>
<ItemData ItemOID="IT.QS.QSBLFL" Value="Y"/>
<ItemData ItemOID="IT.QS.VISITNUM" Value="2"/>
<ItemData ItemOID="IT.QS.VISIT" Value="BASELINE"/>
<ItemData ItemOID="IT.QS.VISITDY" Value="1"/>
<ItemData ItemOID="IT.QS.QSDTC" Value="2003-10-15"/>
<ItemData ItemOID="IT.QS.QSDY" Value="1"/>
<ItemData ItemOID="IT.QS.QSEVLINT" Value="-P1W"/>
</ItemGroupData>
<ItemGroupData ItemGroupOID="IG.QSCS" data:ItemGroupDataSeq="95">
<ItemData ItemOID="IT.STUDYID" Value="CDISC01"/>
<ItemData ItemOID="IT.QS.DOMAIN" Value="QS"/>
<ItemData ItemOID="IT.USUBJID" Value="CDISC01.100014"/>
<ItemData ItemOID="IT.QS.QSSEQ" Value="21"/>
<ItemData ItemOID="IT.QS.QSTESTCD" Value="CSDD05"/>
<ItemData ItemOID="IT.QS.QSTEST" Value="Agitation"/>
<ItemData ItemOID="IT.QS.QSCAT" Value="CORNELL SCALE FOR DEPRESSION IN DEMENTIA (CSDD)"/>
<ItemData ItemOID="IT.QS.QSORRES" Value="Mild or Intermittent"/>
<ItemData ItemOID="IT.QS.QSSTRESC" Value="1"/>
<ItemData ItemOID="IT.QS.QSSTRESN" Value="1"/>
<ItemData ItemOID="IT.QS.VISITNUM" Value="3"/>
<ItemData ItemOID="IT.QS.VISIT" Value="WEEK 2"/>
<ItemData ItemOID="IT.QS.VISITDY" Value="15"/>
<ItemData ItemOID="IT.QS.QSDTC" Value="2003-10-31"/>
<ItemData ItemOID="IT.QS.QSDY" Value="17"/>
<ItemData ItemOID="IT.QS.QSEVLINT" Value="-P1W"/>
</ItemGroupData>
<ItemGroupData ItemGroupOID="IG.QSCS" data:ItemGroupDataSeq="96">
<ItemData ItemOID="IT.STUDYID" Value="CDISC01"/>
<ItemData ItemOID="IT.QS.DOMAIN" Value="QS"/>
<ItemData ItemOID="IT.USUBJID" Value="CDISC01.100014"/>
<ItemData ItemOID="IT.QS.QSSEQ" Value="22"/>
<ItemData ItemOID="IT.QS.QSTESTCD" Value="CSDD05"/>
<ItemData ItemOID="IT.QS.QSTEST" Value="Agitation"/>
<ItemData ItemOID="IT.QS.QSCAT" Value="CORNELL SCALE FOR DEPRESSION IN DEMENTIA (CSDD)"/>
<ItemData ItemOID="IT.QS.QSORRES" Value="Mild or Intermittent"/>
<ItemData ItemOID="IT.QS.QSSTRESC" Value="1"/>
<ItemData ItemOID="IT.QS.QSSTRESN" Value="1"/>
<ItemData ItemOID="IT.QS.VISITNUM" Value="10"/>
<ItemData ItemOID="IT.QS.VISIT" Value="WEEK 24"/>
<ItemData ItemOID="IT.QS.VISITDY" Value="169"/>
<ItemData ItemOID="IT.QS.QSDTC" Value="2004-03-30"/>
<ItemData ItemOID="IT.QS.QSDY" Value="168"/>
<ItemData ItemOID="IT.QS.QSEVLINT" Value="-P1W"/>
</ItemGroupData>
<ItemGroupData ItemGroupOID="IG.QSCS" data:ItemGroupDataSeq="97">
<ItemData ItemOID="IT.STUDYID" Value="CDISC01"/>
<ItemData ItemOID="IT.QS.DOMAIN" Value="QS"/>
<ItemData ItemOID="IT.USUBJID" Value="CDISC01.100014"/>
<ItemData ItemOID="IT.QS.QSSEQ" Value="23"/>
<ItemData ItemOID="IT.QS.QSTESTCD" Value="CSDD06"/>
<ItemData ItemOID="IT.QS.QSTEST" Value="Retardation"/>
<ItemData ItemOID="IT.QS.QSCAT" Value="CORNELL SCALE FOR DEPRESSION IN DEMENTIA (CSDD)"/>
<ItemData ItemOID="IT.QS.QSORRES" Value="Severe"/>
<ItemData ItemOID="IT.QS.QSSTRESC" Value="2"/>
<ItemData ItemOID="IT.QS.QSSTRESN" Value="2"/>
<ItemData ItemOID="IT.QS.VISITNUM" Value="1"/>
<ItemData ItemOID="IT.QS.VISIT" Value="SCREEN"/>
<ItemData ItemOID="IT.QS.VISITDY" Value="-13"/>
<ItemData ItemOID="IT.QS.QSDTC" Value="2003-10-06"/>
<ItemData ItemOID="IT.QS.QSDY" Value="-9"/>
<ItemData ItemOID="IT.QS.QSEVLINT" Value="-P1W"/>
</ItemGroupData>
<ItemGroupData ItemGroupOID="IG.QSCS" data:ItemGroupDataSeq="98">
<ItemData ItemOID="IT.STUDYID" Value="CDISC01"/>
<ItemData ItemOID="IT.QS.DOMAIN" Value="QS"/>
<ItemData ItemOID="IT.USUBJID" Value="CDISC01.100014"/>
<ItemData ItemOID="IT.QS.QSSEQ" Value="24"/>
<ItemData ItemOID="IT.QS.QSTESTCD" Value="CSDD06"/>
<ItemData ItemOID="IT.QS.QSTEST" Value="Retardation"/>
<ItemData ItemOID="IT.QS.QSCAT" Value="CORNELL SCALE FOR DEPRESSION IN DEMENTIA (CSDD)"/>
<ItemData ItemOID="IT.QS.QSORRES" Value="Mild or Intermittent"/>
<ItemData ItemOID="IT.QS.QSSTRESC" Value="1"/>
<ItemData ItemOID="IT.QS.QSSTRESN" Value="1"/>
<ItemData ItemOID="IT.QS.QSBLFL" Value="Y"/>
<ItemData ItemOID="IT.QS.VISITNUM" Value="2"/>
<ItemData ItemOID="IT.QS.VISIT" Value="BASELINE"/>
<ItemData ItemOID="IT.QS.VISITDY" Value="1"/>
<ItemData ItemOID="IT.QS.QSDTC" Value="2003-10-15"/>
<ItemData ItemOID="IT.QS.QSDY" Value="1"/>
<ItemData ItemOID="IT.QS.QSEVLINT" Value="-P1W"/>
</ItemGroupData>
<ItemGroupData ItemGroupOID="IG.QSCS" data:ItemGroupDataSeq="99">
<ItemData ItemOID="IT.STUDYID" Value="CDISC01"/>
<ItemData ItemOID="IT.QS.DOMAIN" Value="QS"/>
<ItemData ItemOID="IT.USUBJID" Value="CDISC01.100014"/>
<ItemData ItemOID="IT.QS.QSSEQ" Value="25"/>
<ItemData ItemOID="IT.QS.QSTESTCD" Value="CSDD06"/>
<ItemData ItemOID="IT.QS.QSTEST" Value="Retardation"/>
<ItemData ItemOID="IT.QS.QSCAT" Value="CORNELL SCALE FOR DEPRESSION IN DEMENTIA (CSDD)"/>
<ItemData ItemOID="IT.QS.QSORRES" Value="Mild or Intermittent"/>
<ItemData ItemOID="IT.QS.QSSTRESC" Value="1"/>
<ItemData ItemOID="IT.QS.QSSTRESN" Value="1"/>
<ItemData ItemOID="IT.QS.VISITNUM" Value="3"/>
<ItemData ItemOID="IT.QS.VISIT" Value="WEEK 2"/>
<ItemData ItemOID="IT.QS.VISITDY" Value="15"/>
<ItemData ItemOID="IT.QS.QSDTC" Value="2003-10-31"/>
<ItemData ItemOID="IT.QS.QSDY" Value="17"/>
<ItemData ItemOID="IT.QS.QSEVLINT" Value="-P1W"/>
</ItemGroupData>
<ItemGroupData ItemGroupOID="IG.QSCS" data:ItemGroupDataSeq="100">
<ItemData ItemOID="IT.STUDYID" Value="CDISC01"/>
<ItemData ItemOID="IT.QS.DOMAIN" Value="QS"/>
<ItemData ItemOID="IT.USUBJID" Value="CDISC01.100014"/>
<ItemData ItemOID="IT.QS.QSSEQ" Value="26"/>
<ItemData ItemOID="IT.QS.QSTESTCD" Value="CSDD06"/>
<ItemData ItemOID="IT.QS.QSTEST" Value="Retardation"/>
<ItemData ItemOID="IT.QS.QSCAT" Value="CORNELL SCALE FOR DEPRESSION IN DEMENTIA (CSDD)"/>
<ItemData ItemOID="IT.QS.QSORRES" Value="Severe"/>
<ItemData ItemOID="IT.QS.QSSTRESC" Value="2"/>
<ItemData ItemOID="IT.QS.QSSTRESN" Value="2"/>
<ItemData ItemOID="IT.QS.VISITNUM" Value="10"/>
<ItemData ItemOID="IT.QS.VISIT" Value="WEEK 24"/>
<ItemData ItemOID="IT.QS.VISITDY" Value="169"/>
<ItemData ItemOID="IT.QS.QSDTC" Value="2004-03-30"/>
<ItemData ItemOID="IT.QS.QSDY" Value="168"/>
<ItemData ItemOID="IT.QS.QSEVLINT" Value="-P1W"/>
</ItemGroupData>
<ItemGroupData ItemGroupOID="IG.QSCS" data:ItemGroupDataSeq="101">
<ItemData ItemOID="IT.STUDYID" Value="CDISC01"/>
<ItemData ItemOID="IT.QS.DOMAIN" Value="QS"/>
<ItemData ItemOID="IT.USUBJID" Value="CDISC01.100014"/>
<ItemData ItemOID="IT.QS.QSSEQ" Value="27"/>
<ItemData ItemOID="IT.QS.QSTESTCD" Value="CSDD07"/>
<ItemData ItemOID="IT.QS.QSTEST" Value="Multiple Physical Complaints"/>
<ItemData ItemOID="IT.QS.QSCAT" Value="CORNELL SCALE FOR DEPRESSION IN DEMENTIA (CSDD)"/>
<ItemData ItemOID="IT.QS.QSORRES" Value="Mild or Intermittent"/>
<ItemData ItemOID="IT.QS.QSSTRESC" Value="1"/>
<ItemData ItemOID="IT.QS.QSSTRESN" Value="1"/>
<ItemData ItemOID="IT.QS.VISITNUM" Value="1"/>
<ItemData ItemOID="IT.QS.VISIT" Value="SCREEN"/>
<ItemData ItemOID="IT.QS.VISITDY" Value="-13"/>
<ItemData ItemOID="IT.QS.QSDTC" Value="2003-10-06"/>
<ItemData ItemOID="IT.QS.QSDY" Value="-9"/>
<ItemData ItemOID="IT.QS.QSEVLINT" Value="-P1W"/>
</ItemGroupData>
<ItemGroupData ItemGroupOID="IG.QSCS" data:ItemGroupDataSeq="102">
<ItemData ItemOID="IT.STUDYID" Value="CDISC01"/>
<ItemData ItemOID="IT.QS.DOMAIN" Value="QS"/>
<ItemData ItemOID="IT.USUBJID" Value="CDISC01.100014"/>
<ItemData ItemOID="IT.QS.QSSEQ" Value="28"/>
<ItemData ItemOID="IT.QS.QSTESTCD" Value="CSDD07"/>
<ItemData ItemOID="IT.QS.QSTEST" Value="Multiple Physical Complaints"/>
<ItemData ItemOID="IT.QS.QSCAT" Value="CORNELL SCALE FOR DEPRESSION IN DEMENTIA (CSDD)"/>
<ItemData ItemOID="IT.QS.QSORRES" Value="Mild or Intermittent"/>
<ItemData ItemOID="IT.QS.QSSTRESC" Value="1"/>
<ItemData ItemOID="IT.QS.QSSTRESN" Value="1"/>
<ItemData ItemOID="IT.QS.QSBLFL" Value="Y"/>
<ItemData ItemOID="IT.QS.VISITNUM" Value="2"/>
<ItemData ItemOID="IT.QS.VISIT" Value="BASELINE"/>
<ItemData ItemOID="IT.QS.VISITDY" Value="1"/>
<ItemData ItemOID="IT.QS.QSDTC" Value="2003-10-15"/>
<ItemData ItemOID="IT.QS.QSDY" Value="1"/>
<ItemData ItemOID="IT.QS.QSEVLINT" Value="-P1W"/>
</ItemGroupData>
<ItemGroupData ItemGroupOID="IG.QSCS" data:ItemGroupDataSeq="103">
<ItemData ItemOID="IT.STUDYID" Value="CDISC01"/>
<ItemData ItemOID="IT.QS.DOMAIN" Value="QS"/>
<ItemData ItemOID="IT.USUBJID" Value="CDISC01.100014"/>
<ItemData ItemOID="IT.QS.QSSEQ" Value="29"/>
<ItemData ItemOID="IT.QS.QSTESTCD" Value="CSDD07"/>
<ItemData ItemOID="IT.QS.QSTEST" Value="Multiple Physical Complaints"/>
<ItemData ItemOID="IT.QS.QSCAT" Value="CORNELL SCALE FOR DEPRESSION IN DEMENTIA (CSDD)"/>
<ItemData ItemOID="IT.QS.QSORRES" Value="Absent"/>
<ItemData ItemOID="IT.QS.QSSTRESC" Value="0"/>
<ItemData ItemOID="IT.QS.QSSTRESN" Value="0"/>
<ItemData ItemOID="IT.QS.VISITNUM" Value="3"/>
<ItemData ItemOID="IT.QS.VISIT" Value="WEEK 2"/>
<ItemData ItemOID="IT.QS.VISITDY" Value="15"/>
<ItemData ItemOID="IT.QS.QSDTC" Value="2003-10-31"/>
<ItemData ItemOID="IT.QS.QSDY" Value="17"/>
<ItemData ItemOID="IT.QS.QSEVLINT" Value="-P1W"/>
</ItemGroupData>
<ItemGroupData ItemGroupOID="IG.QSCS" data:ItemGroupDataSeq="104">
<ItemData ItemOID="IT.STUDYID" Value="CDISC01"/>
<ItemData ItemOID="IT.QS.DOMAIN" Value="QS"/>
<ItemData ItemOID="IT.USUBJID" Value="CDISC01.100014"/>
<ItemData ItemOID="IT.QS.QSSEQ" Value="30"/>
<ItemData ItemOID="IT.QS.QSTESTCD" Value="CSDD07"/>
<ItemData ItemOID="IT.QS.QSTEST" Value="Multiple Physical Complaints"/>
<ItemData ItemOID="IT.QS.QSCAT" Value="CORNELL SCALE FOR DEPRESSION IN DEMENTIA (CSDD)"/>
<ItemData ItemOID="IT.QS.QSORRES" Value="Mild or Intermittent"/>
<ItemData ItemOID="IT.QS.QSSTRESC" Value="1"/>
<ItemData ItemOID="IT.QS.QSSTRESN" Value="1"/>
<ItemData ItemOID="IT.QS.VISITNUM" Value="10"/>
<ItemData ItemOID="IT.QS.VISIT" Value="WEEK 24"/>
<ItemData ItemOID="IT.QS.VISITDY" Value="169"/>
<ItemData ItemOID="IT.QS.QSDTC" Value="2004-03-30"/>
<ItemData ItemOID="IT.QS.QSDY" Value="168"/>
<ItemData ItemOID="IT.QS.QSEVLINT" Value="-P1W"/>
</ItemGroupData>
<ItemGroupData ItemGroupOID="IG.QSCS" data:ItemGroupDataSeq="105">
<ItemData ItemOID="IT.STUDYID" Value="CDISC01"/>
<ItemData ItemOID="IT.QS.DOMAIN" Value="QS"/>
<ItemData ItemOID="IT.USUBJID" Value="CDISC01.100014"/>
<ItemData ItemOID="IT.QS.QSSEQ" Value="31"/>
<ItemData ItemOID="IT.QS.QSTESTCD" Value="CSDD08"/>
<ItemData ItemOID="IT.QS.QSTEST" Value="Loss of Interest"/>
<ItemData ItemOID="IT.QS.QSCAT" Value="CORNELL SCALE FOR DEPRESSION IN DEMENTIA (CSDD)"/>
<ItemData ItemOID="IT.QS.QSORRES" Value="Mild or Intermittent"/>
<ItemData ItemOID="IT.QS.QSSTRESC" Value="1"/>
<ItemData ItemOID="IT.QS.QSSTRESN" Value="1"/>
<ItemData ItemOID="IT.QS.VISITNUM" Value="1"/>
<ItemData ItemOID="IT.QS.VISIT" Value="SCREEN"/>
<ItemData ItemOID="IT.QS.VISITDY" Value="-13"/>
<ItemData ItemOID="IT.QS.QSDTC" Value="2003-10-06"/>
<ItemData ItemOID="IT.QS.QSDY" Value="-9"/>
<ItemData ItemOID="IT.QS.QSEVLINT" Value="-P1W"/>
</ItemGroupData>
<ItemGroupData ItemGroupOID="IG.QSCS" data:ItemGroupDataSeq="106">
<ItemData ItemOID="IT.STUDYID" Value="CDISC01"/>
<ItemData ItemOID="IT.QS.DOMAIN" Value="QS"/>
<ItemData ItemOID="IT.USUBJID" Value="CDISC01.100014"/>
<ItemData ItemOID="IT.QS.QSSEQ" Value="32"/>
<ItemData ItemOID="IT.QS.QSTESTCD" Value="CSDD08"/>
<ItemData ItemOID="IT.QS.QSTEST" Value="Loss of Interest"/>
<ItemData ItemOID="IT.QS.QSCAT" Value="CORNELL SCALE FOR DEPRESSION IN DEMENTIA (CSDD)"/>
<ItemData ItemOID="IT.QS.QSORRES" Value="Mild or Intermittent"/>
<ItemData ItemOID="IT.QS.QSSTRESC" Value="1"/>
<ItemData ItemOID="IT.QS.QSSTRESN" Value="1"/>
<ItemData ItemOID="IT.QS.QSBLFL" Value="Y"/>
<ItemData ItemOID="IT.QS.VISITNUM" Value="2"/>
<ItemData ItemOID="IT.QS.VISIT" Value="BASELINE"/>
<ItemData ItemOID="IT.QS.VISITDY" Value="1"/>
<ItemData ItemOID="IT.QS.QSDTC" Value="2003-10-15"/>
<ItemData ItemOID="IT.QS.QSDY" Value="1"/>
<ItemData ItemOID="IT.QS.QSEVLINT" Value="-P1W"/>
</ItemGroupData>
<ItemGroupData ItemGroupOID="IG.QSCS" data:ItemGroupDataSeq="107">
<ItemData ItemOID="IT.STUDYID" Value="CDISC01"/>
<ItemData ItemOID="IT.QS.DOMAIN" Value="QS"/>
<ItemData ItemOID="IT.USUBJID" Value="CDISC01.100014"/>
<ItemData ItemOID="IT.QS.QSSEQ" Value="33"/>
<ItemData ItemOID="IT.QS.QSTESTCD" Value="CSDD08"/>
<ItemData ItemOID="IT.QS.QSTEST" Value="Loss of Interest"/>
<ItemData ItemOID="IT.QS.QSCAT" Value="CORNELL SCALE FOR DEPRESSION IN DEMENTIA (CSDD)"/>
<ItemData ItemOID="IT.QS.QSORRES" Value="Mild or Intermittent"/>
<ItemData ItemOID="IT.QS.QSSTRESC" Value="1"/>
<ItemData ItemOID="IT.QS.QSSTRESN" Value="1"/>
<ItemData ItemOID="IT.QS.VISITNUM" Value="3"/>
<ItemData ItemOID="IT.QS.VISIT" Value="WEEK 2"/>
<ItemData ItemOID="IT.QS.VISITDY" Value="15"/>
<ItemData ItemOID="IT.QS.QSDTC" Value="2003-10-31"/>
<ItemData ItemOID="IT.QS.QSDY" Value="17"/>
<ItemData ItemOID="IT.QS.QSEVLINT" Value="-P1W"/>
</ItemGroupData>
<ItemGroupData ItemGroupOID="IG.QSCS" data:ItemGroupDataSeq="108">
<ItemData ItemOID="IT.STUDYID" Value="CDISC01"/>
<ItemData ItemOID="IT.QS.DOMAIN" Value="QS"/>
<ItemData ItemOID="IT.USUBJID" Value="CDISC01.100014"/>
<ItemData ItemOID="IT.QS.QSSEQ" Value="34"/>
<ItemData ItemOID="IT.QS.QSTESTCD" Value="CSDD08"/>
<ItemData ItemOID="IT.QS.QSTEST" Value="Loss of Interest"/>
<ItemData ItemOID="IT.QS.QSCAT" Value="CORNELL SCALE FOR DEPRESSION IN DEMENTIA (CSDD)"/>
<ItemData ItemOID="IT.QS.QSORRES" Value="Absent"/>
<ItemData ItemOID="IT.QS.QSSTRESC" Value="0"/>
<ItemData ItemOID="IT.QS.QSSTRESN" Value="0"/>
<ItemData ItemOID="IT.QS.VISITNUM" Value="10"/>
<ItemData ItemOID="IT.QS.VISIT" Value="WEEK 24"/>
<ItemData ItemOID="IT.QS.VISITDY" Value="169"/>
<ItemData ItemOID="IT.QS.QSDTC" Value="2004-03-30"/>
<ItemData ItemOID="IT.QS.QSDY" Value="168"/>
<ItemData ItemOID="IT.QS.QSEVLINT" Value="-P1W"/>
</ItemGroupData>
<ItemGroupData ItemGroupOID="IG.QSCS" data:ItemGroupDataSeq="109">
<ItemData ItemOID="IT.STUDYID" Value="CDISC01"/>
<ItemData ItemOID="IT.QS.DOMAIN" Value="QS"/>
<ItemData ItemOID="IT.USUBJID" Value="CDISC01.100014"/>
<ItemData ItemOID="IT.QS.QSSEQ" Value="35"/>
<ItemData ItemOID="IT.QS.QSTESTCD" Value="CSDD09"/>
<ItemData ItemOID="IT.QS.QSTEST" Value="Appetite Loss"/>
<ItemData ItemOID="IT.QS.QSCAT" Value="CORNELL SCALE FOR DEPRESSION IN DEMENTIA (CSDD)"/>
<ItemData ItemOID="IT.QS.QSORRES" Value="Absent"/>
<ItemData ItemOID="IT.QS.QSSTRESC" Value="0"/>
<ItemData ItemOID="IT.QS.QSSTRESN" Value="0"/>
<ItemData ItemOID="IT.QS.VISITNUM" Value="1"/>
<ItemData ItemOID="IT.QS.VISIT" Value="SCREEN"/>
<ItemData ItemOID="IT.QS.VISITDY" Value="-13"/>
<ItemData ItemOID="IT.QS.QSDTC" Value="2003-10-06"/>
<ItemData ItemOID="IT.QS.QSDY" Value="-9"/>
<ItemData ItemOID="IT.QS.QSEVLINT" Value="-P1W"/>
</ItemGroupData>
<ItemGroupData ItemGroupOID="IG.QSCS" data:ItemGroupDataSeq="110">
<ItemData ItemOID="IT.STUDYID" Value="CDISC01"/>
<ItemData ItemOID="IT.QS.DOMAIN" Value="QS"/>
<ItemData ItemOID="IT.USUBJID" Value="CDISC01.100014"/>
<ItemData ItemOID="IT.QS.QSSEQ" Value="36"/>
<ItemData ItemOID="IT.QS.QSTESTCD" Value="CSDD09"/>
<ItemData ItemOID="IT.QS.QSTEST" Value="Appetite Loss"/>
<ItemData ItemOID="IT.QS.QSCAT" Value="CORNELL SCALE FOR DEPRESSION IN DEMENTIA (CSDD)"/>
<ItemData ItemOID="IT.QS.QSORRES" Value="Absent"/>
<ItemData ItemOID="IT.QS.QSSTRESC" Value="0"/>
<ItemData ItemOID="IT.QS.QSSTRESN" Value="0"/>
<ItemData ItemOID="IT.QS.QSBLFL" Value="Y"/>
<ItemData ItemOID="IT.QS.VISITNUM" Value="2"/>
<ItemData ItemOID="IT.QS.VISIT" Value="BASELINE"/>
<ItemData ItemOID="IT.QS.VISITDY" Value="1"/>
<ItemData ItemOID="IT.QS.QSDTC" Value="2003-10-15"/>
<ItemData ItemOID="IT.QS.QSDY" Value="1"/>
<ItemData ItemOID="IT.QS.QSEVLINT" Value="-P1W"/>
</ItemGroupData>
<ItemGroupData ItemGroupOID="IG.QSCS" data:ItemGroupDataSeq="111">
<ItemData ItemOID="IT.STUDYID" Value="CDISC01"/>
<ItemData ItemOID="IT.QS.DOMAIN" Value="QS"/>
<ItemData ItemOID="IT.USUBJID" Value="CDISC01.100014"/>
<ItemData ItemOID="IT.QS.QSSEQ" Value="37"/>
<ItemData ItemOID="IT.QS.QSTESTCD" Value="CSDD09"/>
<ItemData ItemOID="IT.QS.QSTEST" Value="Appetite Loss"/>
<ItemData ItemOID="IT.QS.QSCAT" Value="CORNELL SCALE FOR DEPRESSION IN DEMENTIA (CSDD)"/>
<ItemData ItemOID="IT.QS.QSORRES" Value="Absent"/>
<ItemData ItemOID="IT.QS.QSSTRESC" Value="0"/>
<ItemData ItemOID="IT.QS.QSSTRESN" Value="0"/>
<ItemData ItemOID="IT.QS.VISITNUM" Value="3"/>
<ItemData ItemOID="IT.QS.VISIT" Value="WEEK 2"/>
<ItemData ItemOID="IT.QS.VISITDY" Value="15"/>
<ItemData ItemOID="IT.QS.QSDTC" Value="2003-10-31"/>
<ItemData ItemOID="IT.QS.QSDY" Value="17"/>
<ItemData ItemOID="IT.QS.QSEVLINT" Value="-P1W"/>
</ItemGroupData>
<ItemGroupData ItemGroupOID="IG.QSCS" data:ItemGroupDataSeq="112">
<ItemData ItemOID="IT.STUDYID" Value="CDISC01"/>
<ItemData ItemOID="IT.QS.DOMAIN" Value="QS"/>
<ItemData ItemOID="IT.USUBJID" Value="CDISC01.100014"/>
<ItemData ItemOID="IT.QS.QSSEQ" Value="38"/>
<ItemData ItemOID="IT.QS.QSTESTCD" Value="CSDD09"/>
<ItemData ItemOID="IT.QS.QSTEST" Value="Appetite Loss"/>
<ItemData ItemOID="IT.QS.QSCAT" Value="CORNELL SCALE FOR DEPRESSION IN DEMENTIA (CSDD)"/>
<ItemData ItemOID="IT.QS.QSORRES" Value="Absent"/>
<ItemData ItemOID="IT.QS.QSSTRESC" Value="0"/>
<ItemData ItemOID="IT.QS.QSSTRESN" Value="0"/>
<ItemData ItemOID="IT.QS.VISITNUM" Value="10"/>
<ItemData ItemOID="IT.QS.VISIT" Value="WEEK 24"/>
<ItemData ItemOID="IT.QS.VISITDY" Value="169"/>
<ItemData ItemOID="IT.QS.QSDTC" Value="2004-03-30"/>
<ItemData ItemOID="IT.QS.QSDY" Value="168"/>
<ItemData ItemOID="IT.QS.QSEVLINT" Value="-P1W"/>
</ItemGroupData>
<ItemGroupData ItemGroupOID="IG.QSCS" data:ItemGroupDataSeq="113">
<ItemData ItemOID="IT.STUDYID" Value="CDISC01"/>
<ItemData ItemOID="IT.QS.DOMAIN" Value="QS"/>
<ItemData ItemOID="IT.USUBJID" Value="CDISC01.100014"/>
<ItemData ItemOID="IT.QS.QSSEQ" Value="39"/>
<ItemData ItemOID="IT.QS.QSTESTCD" Value="CSDD10"/>
<ItemData ItemOID="IT.QS.QSTEST" Value="Weight Loss"/>
<ItemData ItemOID="IT.QS.QSCAT" Value="CORNELL SCALE FOR DEPRESSION IN DEMENTIA (CSDD)"/>
<ItemData ItemOID="IT.QS.QSORRES" Value="Absent"/>
<ItemData ItemOID="IT.QS.QSSTRESC" Value="0"/>
<ItemData ItemOID="IT.QS.QSSTRESN" Value="0"/>
<ItemData ItemOID="IT.QS.VISITNUM" Value="1"/>
<ItemData ItemOID="IT.QS.VISIT" Value="SCREEN"/>
<ItemData ItemOID="IT.QS.VISITDY" Value="-13"/>
<ItemData ItemOID="IT.QS.QSDTC" Value="2003-10-06"/>
<ItemData ItemOID="IT.QS.QSDY" Value="-9"/>
<ItemData ItemOID="IT.QS.QSEVLINT" Value="-P1W"/>
</ItemGroupData>
<ItemGroupData ItemGroupOID="IG.QSCS" data:ItemGroupDataSeq="114">
<ItemData ItemOID="IT.STUDYID" Value="CDISC01"/>
<ItemData ItemOID="IT.QS.DOMAIN" Value="QS"/>
<ItemData ItemOID="IT.USUBJID" Value="CDISC01.100014"/>
<ItemData ItemOID="IT.QS.QSSEQ" Value="40"/>
<ItemData ItemOID="IT.QS.QSTESTCD" Value="CSDD10"/>
<ItemData ItemOID="IT.QS.QSTEST" Value="Weight Loss"/>
<ItemData ItemOID="IT.QS.QSCAT" Value="CORNELL SCALE FOR DEPRESSION IN DEMENTIA (CSDD)"/>
<ItemData ItemOID="IT.QS.QSORRES" Value="Absent"/>
<ItemData ItemOID="IT.QS.QSSTRESC" Value="0"/>
<ItemData ItemOID="IT.QS.QSSTRESN" Value="0"/>
<ItemData ItemOID="IT.QS.QSBLFL" Value="Y"/>
<ItemData ItemOID="IT.QS.VISITNUM" Value="2"/>
<ItemData ItemOID="IT.QS.VISIT" Value="BASELINE"/>
<ItemData ItemOID="IT.QS.VISITDY" Value="1"/>
<ItemData ItemOID="IT.QS.QSDTC" Value="2003-10-15"/>
<ItemData ItemOID="IT.QS.QSDY" Value="1"/>
<ItemData ItemOID="IT.QS.QSEVLINT" Value="-P1W"/>
</ItemGroupData>
<ItemGroupData ItemGroupOID="IG.QSCS" data:ItemGroupDataSeq="115">
<ItemData ItemOID="IT.STUDYID" Value="CDISC01"/>
<ItemData ItemOID="IT.QS.DOMAIN" Value="QS"/>
<ItemData ItemOID="IT.USUBJID" Value="CDISC01.100014"/>
<ItemData ItemOID="IT.QS.QSSEQ" Value="41"/>
<ItemData ItemOID="IT.QS.QSTESTCD" Value="CSDD10"/>
<ItemData ItemOID="IT.QS.QSTEST" Value="Weight Loss"/>
<ItemData ItemOID="IT.QS.QSCAT" Value="CORNELL SCALE FOR DEPRESSION IN DEMENTIA (CSDD)"/>
<ItemData ItemOID="IT.QS.QSORRES" Value="Absent"/>
<ItemData ItemOID="IT.QS.QSSTRESC" Value="0"/>
<ItemData ItemOID="IT.QS.QSSTRESN" Value="0"/>
<ItemData ItemOID="IT.QS.VISITNUM" Value="3"/>
<ItemData ItemOID="IT.QS.VISIT" Value="WEEK 2"/>
<ItemData ItemOID="IT.QS.VISITDY" Value="15"/>
<ItemData ItemOID="IT.QS.QSDTC" Value="2003-10-31"/>
<ItemData ItemOID="IT.QS.QSDY" Value="17"/>
<ItemData ItemOID="IT.QS.QSEVLINT" Value="-P1W"/>
</ItemGroupData>
<ItemGroupData ItemGroupOID="IG.QSCS" data:ItemGroupDataSeq="116">
<ItemData ItemOID="IT.STUDYID" Value="CDISC01"/>
<ItemData ItemOID="IT.QS.DOMAIN" Value="QS"/>
<ItemData ItemOID="IT.USUBJID" Value="CDISC01.100014"/>
<ItemData ItemOID="IT.QS.QSSEQ" Value="42"/>
<ItemData ItemOID="IT.QS.QSTESTCD" Value="CSDD10"/>
<ItemData ItemOID="IT.QS.QSTEST" Value="Weight Loss"/>
<ItemData ItemOID="IT.QS.QSCAT" Value="CORNELL SCALE FOR DEPRESSION IN DEMENTIA (CSDD)"/>
<ItemData ItemOID="IT.QS.QSORRES" Value="Absent"/>
<ItemData ItemOID="IT.QS.QSSTRESC" Value="0"/>
<ItemData ItemOID="IT.QS.QSSTRESN" Value="0"/>
<ItemData ItemOID="IT.QS.VISITNUM" Value="10"/>
<ItemData ItemOID="IT.QS.VISIT" Value="WEEK 24"/>
<ItemData ItemOID="IT.QS.VISITDY" Value="169"/>
<ItemData ItemOID="IT.QS.QSDTC" Value="2004-03-30"/>
<ItemData ItemOID="IT.QS.QSDY" Value="168"/>
<ItemData ItemOID="IT.QS.QSEVLINT" Value="-P1W"/>
</ItemGroupData>
<ItemGroupData ItemGroupOID="IG.QSCS" data:ItemGroupDataSeq="117">
<ItemData ItemOID="IT.STUDYID" Value="CDISC01"/>
<ItemData ItemOID="IT.QS.DOMAIN" Value="QS"/>
<ItemData ItemOID="IT.USUBJID" Value="CDISC01.100014"/>
<ItemData ItemOID="IT.QS.QSSEQ" Value="43"/>
<ItemData ItemOID="IT.QS.QSTESTCD" Value="CSDD11"/>
<ItemData ItemOID="IT.QS.QSTEST" Value="Lack of Energy"/>
<ItemData ItemOID="IT.QS.QSCAT" Value="CORNELL SCALE FOR DEPRESSION IN DEMENTIA (CSDD)"/>
<ItemData ItemOID="IT.QS.QSORRES" Value="Severe"/>
<ItemData ItemOID="IT.QS.QSSTRESC" Value="2"/>
<ItemData ItemOID="IT.QS.QSSTRESN" Value="2"/>
<ItemData ItemOID="IT.QS.VISITNUM" Value="1"/>
<ItemData ItemOID="IT.QS.VISIT" Value="SCREEN"/>
<ItemData ItemOID="IT.QS.VISITDY" Value="-13"/>
<ItemData ItemOID="IT.QS.QSDTC" Value="2003-10-06"/>
<ItemData ItemOID="IT.QS.QSDY" Value="-9"/>
<ItemData ItemOID="IT.QS.QSEVLINT" Value="-P1W"/>
</ItemGroupData>
<ItemGroupData ItemGroupOID="IG.QSCS" data:ItemGroupDataSeq="118">
<ItemData ItemOID="IT.STUDYID" Value="CDISC01"/>
<ItemData ItemOID="IT.QS.DOMAIN" Value="QS"/>
<ItemData ItemOID="IT.USUBJID" Value="CDISC01.100014"/>
<ItemData ItemOID="IT.QS.QSSEQ" Value="44"/>
<ItemData ItemOID="IT.QS.QSTESTCD" Value="CSDD11"/>
<ItemData ItemOID="IT.QS.QSTEST" Value="Lack of Energy"/>
<ItemData ItemOID="IT.QS.QSCAT" Value="CORNELL SCALE FOR DEPRESSION IN DEMENTIA (CSDD)"/>
<ItemData ItemOID="IT.QS.QSORRES" Value="Mild or Intermittent"/>
<ItemData ItemOID="IT.QS.QSSTRESC" Value="1"/>
<ItemData ItemOID="IT.QS.QSSTRESN" Value="1"/>
<ItemData ItemOID="IT.QS.QSBLFL" Value="Y"/>
<ItemData ItemOID="IT.QS.VISITNUM" Value="2"/>
<ItemData ItemOID="IT.QS.VISIT" Value="BASELINE"/>
<ItemData ItemOID="IT.QS.VISITDY" Value="1"/>
<ItemData ItemOID="IT.QS.QSDTC" Value="2003-10-15"/>
<ItemData ItemOID="IT.QS.QSDY" Value="1"/>
<ItemData ItemOID="IT.QS.QSEVLINT" Value="-P1W"/>
</ItemGroupData>
<ItemGroupData ItemGroupOID="IG.QSCS" data:ItemGroupDataSeq="119">
<ItemData ItemOID="IT.STUDYID" Value="CDISC01"/>
<ItemData ItemOID="IT.QS.DOMAIN" Value="QS"/>
<ItemData ItemOID="IT.USUBJID" Value="CDISC01.100014"/>
<ItemData ItemOID="IT.QS.QSSEQ" Value="45"/>
<ItemData ItemOID="IT.QS.QSTESTCD" Value="CSDD11"/>
<ItemData ItemOID="IT.QS.QSTEST" Value="Lack of Energy"/>
<ItemData ItemOID="IT.QS.QSCAT" Value="CORNELL SCALE FOR DEPRESSION IN DEMENTIA (CSDD)"/>
<ItemData ItemOID="IT.QS.QSORRES" Value="Absent"/>
<ItemData ItemOID="IT.QS.QSSTRESC" Value="0"/>
<ItemData ItemOID="IT.QS.QSSTRESN" Value="0"/>
<ItemData ItemOID="IT.QS.VISITNUM" Value="3"/>
<ItemData ItemOID="IT.QS.VISIT" Value="WEEK 2"/>
<ItemData ItemOID="IT.QS.VISITDY" Value="15"/>
<ItemData ItemOID="IT.QS.QSDTC" Value="2003-10-31"/>
<ItemData ItemOID="IT.QS.QSDY" Value="17"/>
<ItemData ItemOID="IT.QS.QSEVLINT" Value="-P1W"/>
</ItemGroupData>
<ItemGroupData ItemGroupOID="IG.QSCS" data:ItemGroupDataSeq="120">
<ItemData ItemOID="IT.STUDYID" Value="CDISC01"/>
<ItemData ItemOID="IT.QS.DOMAIN" Value="QS"/>
<ItemData ItemOID="IT.USUBJID" Value="CDISC01.100014"/>
<ItemData ItemOID="IT.QS.QSSEQ" Value="46"/>
<ItemData ItemOID="IT.QS.QSTESTCD" Value="CSDD11"/>
<ItemData ItemOID="IT.QS.QSTEST" Value="Lack of Energy"/>
<ItemData ItemOID="IT.QS.QSCAT" Value="CORNELL SCALE FOR DEPRESSION IN DEMENTIA (CSDD)"/>
<ItemData ItemOID="IT.QS.QSORRES" Value="Absent"/>
<ItemData ItemOID="IT.QS.QSSTRESC" Value="0"/>
<ItemData ItemOID="IT.QS.QSSTRESN" Value="0"/>
<ItemData ItemOID="IT.QS.VISITNUM" Value="10"/>
<ItemData ItemOID="IT.QS.VISIT" Value="WEEK 24"/>
<ItemData ItemOID="IT.QS.VISITDY" Value="169"/>
<ItemData ItemOID="IT.QS.QSDTC" Value="2004-03-30"/>
<ItemData ItemOID="IT.QS.QSDY" Value="168"/>
<ItemData ItemOID="IT.QS.QSEVLINT" Value="-P1W"/>
</ItemGroupData>
<ItemGroupData ItemGroupOID="IG.QSCS" data:ItemGroupDataSeq="121">
<ItemData ItemOID="IT.STUDYID" Value="CDISC01"/>
<ItemData ItemOID="IT.QS.DOMAIN" Value="QS"/>
<ItemData ItemOID="IT.USUBJID" Value="CDISC01.100014"/>
<ItemData ItemOID="IT.QS.QSSEQ" Value="47"/>
<ItemData ItemOID="IT.QS.QSTESTCD" Value="CSDD12"/>
<ItemData ItemOID="IT.QS.QSTEST" Value="Diurnal Variation of Mood"/>
<ItemData ItemOID="IT.QS.QSCAT" Value="CORNELL SCALE FOR DEPRESSION IN DEMENTIA (CSDD)"/>
<ItemData ItemOID="IT.QS.QSORRES" Value="Absent"/>
<ItemData ItemOID="IT.QS.QSSTRESC" Value="0"/>
<ItemData ItemOID="IT.QS.QSSTRESN" Value="0"/>
<ItemData ItemOID="IT.QS.VISITNUM" Value="1"/>
<ItemData ItemOID="IT.QS.VISIT" Value="SCREEN"/>
<ItemData ItemOID="IT.QS.VISITDY" Value="-13"/>
<ItemData ItemOID="IT.QS.QSDTC" Value="2003-10-06"/>
<ItemData ItemOID="IT.QS.QSDY" Value="-9"/>
<ItemData ItemOID="IT.QS.QSEVLINT" Value="-P1W"/>
</ItemGroupData>
<ItemGroupData ItemGroupOID="IG.QSCS" data:ItemGroupDataSeq="122">
<ItemData ItemOID="IT.STUDYID" Value="CDISC01"/>
<ItemData ItemOID="IT.QS.DOMAIN" Value="QS"/>
<ItemData ItemOID="IT.USUBJID" Value="CDISC01.100014"/>
<ItemData ItemOID="IT.QS.QSSEQ" Value="48"/>
<ItemData ItemOID="IT.QS.QSTESTCD" Value="CSDD12"/>
<ItemData ItemOID="IT.QS.QSTEST" Value="Diurnal Variation of Mood"/>
<ItemData ItemOID="IT.QS.QSCAT" Value="CORNELL SCALE FOR DEPRESSION IN DEMENTIA (CSDD)"/>
<ItemData ItemOID="IT.QS.QSORRES" Value="Mild or Intermittent"/>
<ItemData ItemOID="IT.QS.QSSTRESC" Value="1"/>
<ItemData ItemOID="IT.QS.QSSTRESN" Value="1"/>
<ItemData ItemOID="IT.QS.QSBLFL" Value="Y"/>
<ItemData ItemOID="IT.QS.VISITNUM" Value="2"/>
<ItemData ItemOID="IT.QS.VISIT" Value="BASELINE"/>
<ItemData ItemOID="IT.QS.VISITDY" Value="1"/>
<ItemData ItemOID="IT.QS.QSDTC" Value="2003-10-15"/>
<ItemData ItemOID="IT.QS.QSDY" Value="1"/>
<ItemData ItemOID="IT.QS.QSEVLINT" Value="-P1W"/>
</ItemGroupData>
<ItemGroupData ItemGroupOID="IG.QSCS" data:ItemGroupDataSeq="123">
<ItemData ItemOID="IT.STUDYID" Value="CDISC01"/>
<ItemData ItemOID="IT.QS.DOMAIN" Value="QS"/>
<ItemData ItemOID="IT.USUBJID" Value="CDISC01.100014"/>
<ItemData ItemOID="IT.QS.QSSEQ" Value="49"/>
<ItemData ItemOID="IT.QS.QSTESTCD" Value="CSDD12"/>
<ItemData ItemOID="IT.QS.QSTEST" Value="Diurnal Variation of Mood"/>
<ItemData ItemOID="IT.QS.QSCAT" Value="CORNELL SCALE FOR DEPRESSION IN DEMENTIA (CSDD)"/>
<ItemData ItemOID="IT.QS.QSORRES" Value="Mild or Intermittent"/>
<ItemData ItemOID="IT.QS.QSSTRESC" Value="1"/>
<ItemData ItemOID="IT.QS.QSSTRESN" Value="1"/>
<ItemData ItemOID="IT.QS.VISITNUM" Value="3"/>
<ItemData ItemOID="IT.QS.VISIT" Value="WEEK 2"/>
<ItemData ItemOID="IT.QS.VISITDY" Value="15"/>
<ItemData ItemOID="IT.QS.QSDTC" Value="2003-10-31"/>
<ItemData ItemOID="IT.QS.QSDY" Value="17"/>
<ItemData ItemOID="IT.QS.QSEVLINT" Value="-P1W"/>
</ItemGroupData>
<ItemGroupData ItemGroupOID="IG.QSCS" data:ItemGroupDataSeq="124">
<ItemData ItemOID="IT.STUDYID" Value="CDISC01"/>
<ItemData ItemOID="IT.QS.DOMAIN" Value="QS"/>
<ItemData ItemOID="IT.USUBJID" Value="CDISC01.100014"/>
<ItemData ItemOID="IT.QS.QSSEQ" Value="50"/>
<ItemData ItemOID="IT.QS.QSTESTCD" Value="CSDD12"/>
<ItemData ItemOID="IT.QS.QSTEST" Value="Diurnal Variation of Mood"/>
<ItemData ItemOID="IT.QS.QSCAT" Value="CORNELL SCALE FOR DEPRESSION IN DEMENTIA (CSDD)"/>
<ItemData ItemOID="IT.QS.QSORRES" Value="Mild or Intermittent"/>
<ItemData ItemOID="IT.QS.QSSTRESC" Value="1"/>
<ItemData ItemOID="IT.QS.QSSTRESN" Value="1"/>
<ItemData ItemOID="IT.QS.VISITNUM" Value="10"/>
<ItemData ItemOID="IT.QS.VISIT" Value="WEEK 24"/>
<ItemData ItemOID="IT.QS.VISITDY" Value="169"/>
<ItemData ItemOID="IT.QS.QSDTC" Value="2004-03-30"/>
<ItemData ItemOID="IT.QS.QSDY" Value="168"/>
<ItemData ItemOID="IT.QS.QSEVLINT" Value="-P1W"/>
</ItemGroupData>
<ItemGroupData ItemGroupOID="IG.QSCS" data:ItemGroupDataSeq="125">
<ItemData ItemOID="IT.STUDYID" Value="CDISC01"/>
<ItemData ItemOID="IT.QS.DOMAIN" Value="QS"/>
<ItemData ItemOID="IT.USUBJID" Value="CDISC01.100014"/>
<ItemData ItemOID="IT.QS.QSSEQ" Value="51"/>
<ItemData ItemOID="IT.QS.QSTESTCD" Value="CSDD13"/>
<ItemData ItemOID="IT.QS.QSTEST" Value="Difficulty Falling Asleep"/>
<ItemData ItemOID="IT.QS.QSCAT" Value="CORNELL SCALE FOR DEPRESSION IN DEMENTIA (CSDD)"/>
<ItemData ItemOID="IT.QS.QSORRES" Value="Mild or Intermittent"/>
<ItemData ItemOID="IT.QS.QSSTRESC" Value="1"/>
<ItemData ItemOID="IT.QS.QSSTRESN" Value="1"/>
<ItemData ItemOID="IT.QS.VISITNUM" Value="1"/>
<ItemData ItemOID="IT.QS.VISIT" Value="SCREEN"/>
<ItemData ItemOID="IT.QS.VISITDY" Value="-13"/>
<ItemData ItemOID="IT.QS.QSDTC" Value="2003-10-06"/>
<ItemData ItemOID="IT.QS.QSDY" Value="-9"/>
<ItemData ItemOID="IT.QS.QSEVLINT" Value="-P1W"/>
</ItemGroupData>
<ItemGroupData ItemGroupOID="IG.QSCS" data:ItemGroupDataSeq="126">
<ItemData ItemOID="IT.STUDYID" Value="CDISC01"/>
<ItemData ItemOID="IT.QS.DOMAIN" Value="QS"/>
<ItemData ItemOID="IT.USUBJID" Value="CDISC01.100014"/>
<ItemData ItemOID="IT.QS.QSSEQ" Value="52"/>
<ItemData ItemOID="IT.QS.QSTESTCD" Value="CSDD13"/>
<ItemData ItemOID="IT.QS.QSTEST" Value="Difficulty Falling Asleep"/>
<ItemData ItemOID="IT.QS.QSCAT" Value="CORNELL SCALE FOR DEPRESSION IN DEMENTIA (CSDD)"/>
<ItemData ItemOID="IT.QS.QSORRES" Value="Mild or Intermittent"/>
<ItemData ItemOID="IT.QS.QSSTRESC" Value="1"/>
<ItemData ItemOID="IT.QS.QSSTRESN" Value="1"/>
<ItemData ItemOID="IT.QS.QSBLFL" Value="Y"/>
<ItemData ItemOID="IT.QS.VISITNUM" Value="2"/>
<ItemData ItemOID="IT.QS.VISIT" Value="BASELINE"/>
<ItemData ItemOID="IT.QS.VISITDY" Value="1"/>
<ItemData ItemOID="IT.QS.QSDTC" Value="2003-10-15"/>
<ItemData ItemOID="IT.QS.QSDY" Value="1"/>
<ItemData ItemOID="IT.QS.QSEVLINT" Value="-P1W"/>
</ItemGroupData>
<ItemGroupData ItemGroupOID="IG.QSCS" data:ItemGroupDataSeq="127">
<ItemData ItemOID="IT.STUDYID" Value="CDISC01"/>
<ItemData ItemOID="IT.QS.DOMAIN" Value="QS"/>
<ItemData ItemOID="IT.USUBJID" Value="CDISC01.100014"/>
<ItemData ItemOID="IT.QS.QSSEQ" Value="53"/>
<ItemData ItemOID="IT.QS.QSTESTCD" Value="CSDD13"/>
<ItemData ItemOID="IT.QS.QSTEST" Value="Difficulty Falling Asleep"/>
<ItemData ItemOID="IT.QS.QSCAT" Value="CORNELL SCALE FOR DEPRESSION IN DEMENTIA (CSDD)"/>
<ItemData ItemOID="IT.QS.QSORRES" Value="Absent"/>
<ItemData ItemOID="IT.QS.QSSTRESC" Value="0"/>
<ItemData ItemOID="IT.QS.QSSTRESN" Value="0"/>
<ItemData ItemOID="IT.QS.VISITNUM" Value="3"/>
<ItemData ItemOID="IT.QS.VISIT" Value="WEEK 2"/>
<ItemData ItemOID="IT.QS.VISITDY" Value="15"/>
<ItemData ItemOID="IT.QS.QSDTC" Value="2003-10-31"/>
<ItemData ItemOID="IT.QS.QSDY" Value="17"/>
<ItemData ItemOID="IT.QS.QSEVLINT" Value="-P1W"/>
</ItemGroupData>
<ItemGroupData ItemGroupOID="IG.QSCS" data:ItemGroupDataSeq="128">
<ItemData ItemOID="IT.STUDYID" Value="CDISC01"/>
<ItemData ItemOID="IT.QS.DOMAIN" Value="QS"/>
<ItemData ItemOID="IT.USUBJID" Value="CDISC01.100014"/>
<ItemData ItemOID="IT.QS.QSSEQ" Value="54"/>
<ItemData ItemOID="IT.QS.QSTESTCD" Value="CSDD13"/>
<ItemData ItemOID="IT.QS.QSTEST" Value="Difficulty Falling Asleep"/>
<ItemData ItemOID="IT.QS.QSCAT" Value="CORNELL SCALE FOR DEPRESSION IN DEMENTIA (CSDD)"/>
<ItemData ItemOID="IT.QS.QSORRES" Value="Absent"/>
<ItemData ItemOID="IT.QS.QSSTRESC" Value="0"/>
<ItemData ItemOID="IT.QS.QSSTRESN" Value="0"/>
<ItemData ItemOID="IT.QS.VISITNUM" Value="10"/>
<ItemData ItemOID="IT.QS.VISIT" Value="WEEK 24"/>
<ItemData ItemOID="IT.QS.VISITDY" Value="169"/>
<ItemData ItemOID="IT.QS.QSDTC" Value="2004-03-30"/>
<ItemData ItemOID="IT.QS.QSDY" Value="168"/>
<ItemData ItemOID="IT.QS.QSEVLINT" Value="-P1W"/>
</ItemGroupData>
<ItemGroupData ItemGroupOID="IG.QSCS" data:ItemGroupDataSeq="129">
<ItemData ItemOID="IT.STUDYID" Value="CDISC01"/>
<ItemData ItemOID="IT.QS.DOMAIN" Value="QS"/>
<ItemData ItemOID="IT.USUBJID" Value="CDISC01.100014"/>
<ItemData ItemOID="IT.QS.QSSEQ" Value="55"/>
<ItemData ItemOID="IT.QS.QSTESTCD" Value="CSDD14"/>
<ItemData ItemOID="IT.QS.QSTEST" Value="Multiple Awakenings During Sleep"/>
<ItemData ItemOID="IT.QS.QSCAT" Value="CORNELL SCALE FOR DEPRESSION IN DEMENTIA (CSDD)"/>
<ItemData ItemOID="IT.QS.QSORRES" Value="Mild or Intermittent"/>
<ItemData ItemOID="IT.QS.QSSTRESC" Value="1"/>
<ItemData ItemOID="IT.QS.QSSTRESN" Value="1"/>
<ItemData ItemOID="IT.QS.VISITNUM" Value="1"/>
<ItemData ItemOID="IT.QS.VISIT" Value="SCREEN"/>
<ItemData ItemOID="IT.QS.VISITDY" Value="-13"/>
<ItemData ItemOID="IT.QS.QSDTC" Value="2003-10-06"/>
<ItemData ItemOID="IT.QS.QSDY" Value="-9"/>
<ItemData ItemOID="IT.QS.QSEVLINT" Value="-P1W"/>
</ItemGroupData>
<ItemGroupData ItemGroupOID="IG.QSCS" data:ItemGroupDataSeq="130">
<ItemData ItemOID="IT.STUDYID" Value="CDISC01"/>
<ItemData ItemOID="IT.QS.DOMAIN" Value="QS"/>
<ItemData ItemOID="IT.USUBJID" Value="CDISC01.100014"/>
<ItemData ItemOID="IT.QS.QSSEQ" Value="56"/>
<ItemData ItemOID="IT.QS.QSTESTCD" Value="CSDD14"/>
<ItemData ItemOID="IT.QS.QSTEST" Value="Multiple Awakenings During Sleep"/>
<ItemData ItemOID="IT.QS.QSCAT" Value="CORNELL SCALE FOR DEPRESSION IN DEMENTIA (CSDD)"/>
<ItemData ItemOID="IT.QS.QSORRES" Value="Mild or Intermittent"/>
<ItemData ItemOID="IT.QS.QSSTRESC" Value="1"/>
<ItemData ItemOID="IT.QS.QSSTRESN" Value="1"/>
<ItemData ItemOID="IT.QS.QSBLFL" Value="Y"/>
<ItemData ItemOID="IT.QS.VISITNUM" Value="2"/>
<ItemData ItemOID="IT.QS.VISIT" Value="BASELINE"/>
<ItemData ItemOID="IT.QS.VISITDY" Value="1"/>
<ItemData ItemOID="IT.QS.QSDTC" Value="2003-10-15"/>
<ItemData ItemOID="IT.QS.QSDY" Value="1"/>
<ItemData ItemOID="IT.QS.QSEVLINT" Value="-P1W"/>
</ItemGroupData>
<ItemGroupData ItemGroupOID="IG.QSCS" data:ItemGroupDataSeq="131">
<ItemData ItemOID="IT.STUDYID" Value="CDISC01"/>
<ItemData ItemOID="IT.QS.DOMAIN" Value="QS"/>
<ItemData ItemOID="IT.USUBJID" Value="CDISC01.100014"/>
<ItemData ItemOID="IT.QS.QSSEQ" Value="57"/>
<ItemData ItemOID="IT.QS.QSTESTCD" Value="CSDD14"/>
<ItemData ItemOID="IT.QS.QSTEST" Value="Multiple Awakenings During Sleep"/>
<ItemData ItemOID="IT.QS.QSCAT" Value="CORNELL SCALE FOR DEPRESSION IN DEMENTIA (CSDD)"/>
<ItemData ItemOID="IT.QS.QSORRES" Value="Mild or Intermittent"/>
<ItemData ItemOID="IT.QS.QSSTRESC" Value="1"/>
<ItemData ItemOID="IT.QS.QSSTRESN" Value="1"/>
<ItemData ItemOID="IT.QS.VISITNUM" Value="3"/>
<ItemData ItemOID="IT.QS.VISIT" Value="WEEK 2"/>
<ItemData ItemOID="IT.QS.VISITDY" Value="15"/>
<ItemData ItemOID="IT.QS.QSDTC" Value="2003-10-31"/>
<ItemData ItemOID="IT.QS.QSDY" Value="17"/>
<ItemData ItemOID="IT.QS.QSEVLINT" Value="-P1W"/>
</ItemGroupData>
<ItemGroupData ItemGroupOID="IG.QSCS" data:ItemGroupDataSeq="132">
<ItemData ItemOID="IT.STUDYID" Value="CDISC01"/>
<ItemData ItemOID="IT.QS.DOMAIN" Value="QS"/>
<ItemData ItemOID="IT.USUBJID" Value="CDISC01.100014"/>
<ItemData ItemOID="IT.QS.QSSEQ" Value="58"/>
<ItemData ItemOID="IT.QS.QSTESTCD" Value="CSDD14"/>
<ItemData ItemOID="IT.QS.QSTEST" Value="Multiple Awakenings During Sleep"/>
<ItemData ItemOID="IT.QS.QSCAT" Value="CORNELL SCALE FOR DEPRESSION IN DEMENTIA (CSDD)"/>
<ItemData ItemOID="IT.QS.QSORRES" Value="Absent"/>
<ItemData ItemOID="IT.QS.QSSTRESC" Value="0"/>
<ItemData ItemOID="IT.QS.QSSTRESN" Value="0"/>
<ItemData ItemOID="IT.QS.VISITNUM" Value="10"/>
<ItemData ItemOID="IT.QS.VISIT" Value="WEEK 24"/>
<ItemData ItemOID="IT.QS.VISITDY" Value="169"/>
<ItemData ItemOID="IT.QS.QSDTC" Value="2004-03-30"/>
<ItemData ItemOID="IT.QS.QSDY" Value="168"/>
<ItemData ItemOID="IT.QS.QSEVLINT" Value="-P1W"/>
</ItemGroupData>
<ItemGroupData ItemGroupOID="IG.QSCS" data:ItemGroupDataSeq="133">
<ItemData ItemOID="IT.STUDYID" Value="CDISC01"/>
<ItemData ItemOID="IT.QS.DOMAIN" Value="QS"/>
<ItemData ItemOID="IT.USUBJID" Value="CDISC01.100014"/>
<ItemData ItemOID="IT.QS.QSSEQ" Value="59"/>
<ItemData ItemOID="IT.QS.QSTESTCD" Value="CSDD15"/>
<ItemData ItemOID="IT.QS.QSTEST" Value="Early Morning Awakening"/>
<ItemData ItemOID="IT.QS.QSCAT" Value="CORNELL SCALE FOR DEPRESSION IN DEMENTIA (CSDD)"/>
<ItemData ItemOID="IT.QS.QSORRES" Value="Absent"/>
<ItemData ItemOID="IT.QS.QSSTRESC" Value="0"/>
<ItemData ItemOID="IT.QS.QSSTRESN" Value="0"/>
<ItemData ItemOID="IT.QS.VISITNUM" Value="1"/>
<ItemData ItemOID="IT.QS.VISIT" Value="SCREEN"/>
<ItemData ItemOID="IT.QS.VISITDY" Value="-13"/>
<ItemData ItemOID="IT.QS.QSDTC" Value="2003-10-06"/>
<ItemData ItemOID="IT.QS.QSDY" Value="-9"/>
<ItemData ItemOID="IT.QS.QSEVLINT" Value="-P1W"/>
</ItemGroupData>
<ItemGroupData ItemGroupOID="IG.QSCS" data:ItemGroupDataSeq="134">
<ItemData ItemOID="IT.STUDYID" Value="CDISC01"/>
<ItemData ItemOID="IT.QS.DOMAIN" Value="QS"/>
<ItemData ItemOID="IT.USUBJID" Value="CDISC01.100014"/>
<ItemData ItemOID="IT.QS.QSSEQ" Value="60"/>
<ItemData ItemOID="IT.QS.QSTESTCD" Value="CSDD15"/>
<ItemData ItemOID="IT.QS.QSTEST" Value="Early Morning Awakening"/>
<ItemData ItemOID="IT.QS.QSCAT" Value="CORNELL SCALE FOR DEPRESSION IN DEMENTIA (CSDD)"/>
<ItemData ItemOID="IT.QS.QSORRES" Value="Absent"/>
<ItemData ItemOID="IT.QS.QSSTRESC" Value="0"/>
<ItemData ItemOID="IT.QS.QSSTRESN" Value="0"/>
<ItemData ItemOID="IT.QS.QSBLFL" Value="Y"/>
<ItemData ItemOID="IT.QS.VISITNUM" Value="2"/>
<ItemData ItemOID="IT.QS.VISIT" Value="BASELINE"/>
<ItemData ItemOID="IT.QS.VISITDY" Value="1"/>
<ItemData ItemOID="IT.QS.QSDTC" Value="2003-10-15"/>
<ItemData ItemOID="IT.QS.QSDY" Value="1"/>
<ItemData ItemOID="IT.QS.QSEVLINT" Value="-P1W"/>
</ItemGroupData>
<ItemGroupData ItemGroupOID="IG.QSCS" data:ItemGroupDataSeq="135">
<ItemData ItemOID="IT.STUDYID" Value="CDISC01"/>
<ItemData ItemOID="IT.QS.DOMAIN" Value="QS"/>
<ItemData ItemOID="IT.USUBJID" Value="CDISC01.100014"/>
<ItemData ItemOID="IT.QS.QSSEQ" Value="61"/>
<ItemData ItemOID="IT.QS.QSTESTCD" Value="CSDD15"/>
<ItemData ItemOID="IT.QS.QSTEST" Value="Early Morning Awakening"/>
<ItemData ItemOID="IT.QS.QSCAT" Value="CORNELL SCALE FOR DEPRESSION IN DEMENTIA (CSDD)"/>
<ItemData ItemOID="IT.QS.QSORRES" Value="Mild or Intermittent"/>
<ItemData ItemOID="IT.QS.QSSTRESC" Value="1"/>
<ItemData ItemOID="IT.QS.QSSTRESN" Value="1"/>
<ItemData ItemOID="IT.QS.VISITNUM" Value="3"/>
<ItemData ItemOID="IT.QS.VISIT" Value="WEEK 2"/>
<ItemData ItemOID="IT.QS.VISITDY" Value="15"/>
<ItemData ItemOID="IT.QS.QSDTC" Value="2003-10-31"/>
<ItemData ItemOID="IT.QS.QSDY" Value="17"/>
<ItemData ItemOID="IT.QS.QSEVLINT" Value="-P1W"/>
</ItemGroupData>
<ItemGroupData ItemGroupOID="IG.QSCS" data:ItemGroupDataSeq="136">
<ItemData ItemOID="IT.STUDYID" Value="CDISC01"/>
<ItemData ItemOID="IT.QS.DOMAIN" Value="QS"/>
<ItemData ItemOID="IT.USUBJID" Value="CDISC01.100014"/>
<ItemData ItemOID="IT.QS.QSSEQ" Value="62"/>
<ItemData ItemOID="IT.QS.QSTESTCD" Value="CSDD15"/>
<ItemData ItemOID="IT.QS.QSTEST" Value="Early Morning Awakening"/>
<ItemData ItemOID="IT.QS.QSCAT" Value="CORNELL SCALE FOR DEPRESSION IN DEMENTIA (CSDD)"/>
<ItemData ItemOID="IT.QS.QSORRES" Value="Absent"/>
<ItemData ItemOID="IT.QS.QSSTRESC" Value="0"/>
<ItemData ItemOID="IT.QS.QSSTRESN" Value="0"/>
<ItemData ItemOID="IT.QS.VISITNUM" Value="10"/>
<ItemData ItemOID="IT.QS.VISIT" Value="WEEK 24"/>
<ItemData ItemOID="IT.QS.VISITDY" Value="169"/>
<ItemData ItemOID="IT.QS.QSDTC" Value="2004-03-30"/>
<ItemData ItemOID="IT.QS.QSDY" Value="168"/>
<ItemData ItemOID="IT.QS.QSEVLINT" Value="-P1W"/>
</ItemGroupData>
<ItemGroupData ItemGroupOID="IG.QSCS" data:ItemGroupDataSeq="137">
<ItemData ItemOID="IT.STUDYID" Value="CDISC01"/>
<ItemData ItemOID="IT.QS.DOMAIN" Value="QS"/>
<ItemData ItemOID="IT.USUBJID" Value="CDISC01.100014"/>
<ItemData ItemOID="IT.QS.QSSEQ" Value="63"/>
<ItemData ItemOID="IT.QS.QSTESTCD" Value="CSDD16"/>
<ItemData ItemOID="IT.QS.QSTEST" Value="Suicide"/>
<ItemData ItemOID="IT.QS.QSCAT" Value="CORNELL SCALE FOR DEPRESSION IN DEMENTIA (CSDD)"/>
<ItemData ItemOID="IT.QS.QSORRES" Value="Absent"/>
<ItemData ItemOID="IT.QS.QSSTRESC" Value="0"/>
<ItemData ItemOID="IT.QS.QSSTRESN" Value="0"/>
<ItemData ItemOID="IT.QS.VISITNUM" Value="1"/>
<ItemData ItemOID="IT.QS.VISIT" Value="SCREEN"/>
<ItemData ItemOID="IT.QS.VISITDY" Value="-13"/>
<ItemData ItemOID="IT.QS.QSDTC" Value="2003-10-06"/>
<ItemData ItemOID="IT.QS.QSDY" Value="-9"/>
<ItemData ItemOID="IT.QS.QSEVLINT" Value="-P1W"/>
</ItemGroupData>
<ItemGroupData ItemGroupOID="IG.QSCS" data:ItemGroupDataSeq="138">
<ItemData ItemOID="IT.STUDYID" Value="CDISC01"/>
<ItemData ItemOID="IT.QS.DOMAIN" Value="QS"/>
<ItemData ItemOID="IT.USUBJID" Value="CDISC01.100014"/>
<ItemData ItemOID="IT.QS.QSSEQ" Value="64"/>
<ItemData ItemOID="IT.QS.QSTESTCD" Value="CSDD16"/>
<ItemData ItemOID="IT.QS.QSTEST" Value="Suicide"/>
<ItemData ItemOID="IT.QS.QSCAT" Value="CORNELL SCALE FOR DEPRESSION IN DEMENTIA (CSDD)"/>
<ItemData ItemOID="IT.QS.QSORRES" Value="Absent"/>
<ItemData ItemOID="IT.QS.QSSTRESC" Value="0"/>
<ItemData ItemOID="IT.QS.QSSTRESN" Value="0"/>
<ItemData ItemOID="IT.QS.QSBLFL" Value="Y"/>
<ItemData ItemOID="IT.QS.VISITNUM" Value="2"/>
<ItemData ItemOID="IT.QS.VISIT" Value="BASELINE"/>
<ItemData ItemOID="IT.QS.VISITDY" Value="1"/>
<ItemData ItemOID="IT.QS.QSDTC" Value="2003-10-15"/>
<ItemData ItemOID="IT.QS.QSDY" Value="1"/>
<ItemData ItemOID="IT.QS.QSEVLINT" Value="-P1W"/>
</ItemGroupData>
<ItemGroupData ItemGroupOID="IG.QSCS" data:ItemGroupDataSeq="139">
<ItemData ItemOID="IT.STUDYID" Value="CDISC01"/>
<ItemData ItemOID="IT.QS.DOMAIN" Value="QS"/>
<ItemData ItemOID="IT.USUBJID" Value="CDISC01.100014"/>
<ItemData ItemOID="IT.QS.QSSEQ" Value="65"/>
<ItemData ItemOID="IT.QS.QSTESTCD" Value="CSDD16"/>
<ItemData ItemOID="IT.QS.QSTEST" Value="Suicide"/>
<ItemData ItemOID="IT.QS.QSCAT" Value="CORNELL SCALE FOR DEPRESSION IN DEMENTIA (CSDD)"/>
<ItemData ItemOID="IT.QS.QSORRES" Value="Absent"/>
<ItemData ItemOID="IT.QS.QSSTRESC" Value="0"/>
<ItemData ItemOID="IT.QS.QSSTRESN" Value="0"/>
<ItemData ItemOID="IT.QS.VISITNUM" Value="3"/>
<ItemData ItemOID="IT.QS.VISIT" Value="WEEK 2"/>
<ItemData ItemOID="IT.QS.VISITDY" Value="15"/>
<ItemData ItemOID="IT.QS.QSDTC" Value="2003-10-31"/>
<ItemData ItemOID="IT.QS.QSDY" Value="17"/>
<ItemData ItemOID="IT.QS.QSEVLINT" Value="-P1W"/>
</ItemGroupData>
<ItemGroupData ItemGroupOID="IG.QSCS" data:ItemGroupDataSeq="140">
<ItemData ItemOID="IT.STUDYID" Value="CDISC01"/>
<ItemData ItemOID="IT.QS.DOMAIN" Value="QS"/>
<ItemData ItemOID="IT.USUBJID" Value="CDISC01.100014"/>
<ItemData ItemOID="IT.QS.QSSEQ" Value="66"/>
<ItemData ItemOID="IT.QS.QSTESTCD" Value="CSDD16"/>
<ItemData ItemOID="IT.QS.QSTEST" Value="Suicide"/>
<ItemData ItemOID="IT.QS.QSCAT" Value="CORNELL SCALE FOR DEPRESSION IN DEMENTIA (CSDD)"/>
<ItemData ItemOID="IT.QS.QSORRES" Value="Absent"/>
<ItemData ItemOID="IT.QS.QSSTRESC" Value="0"/>
<ItemData ItemOID="IT.QS.QSSTRESN" Value="0"/>
<ItemData ItemOID="IT.QS.VISITNUM" Value="10"/>
<ItemData ItemOID="IT.QS.VISIT" Value="WEEK 24"/>
<ItemData ItemOID="IT.QS.VISITDY" Value="169"/>
<ItemData ItemOID="IT.QS.QSDTC" Value="2004-03-30"/>
<ItemData ItemOID="IT.QS.QSDY" Value="168"/>
<ItemData ItemOID="IT.QS.QSEVLINT" Value="-P1W"/>
</ItemGroupData>
<ItemGroupData ItemGroupOID="IG.QSCS" data:ItemGroupDataSeq="141">
<ItemData ItemOID="IT.STUDYID" Value="CDISC01"/>
<ItemData ItemOID="IT.QS.DOMAIN" Value="QS"/>
<ItemData ItemOID="IT.USUBJID" Value="CDISC01.100014"/>
<ItemData ItemOID="IT.QS.QSSEQ" Value="67"/>
<ItemData ItemOID="IT.QS.QSTESTCD" Value="CSDD17"/>
<ItemData ItemOID="IT.QS.QSTEST" Value="Poor Self-Esteem"/>
<ItemData ItemOID="IT.QS.QSCAT" Value="CORNELL SCALE FOR DEPRESSION IN DEMENTIA (CSDD)"/>
<ItemData ItemOID="IT.QS.QSORRES" Value="Absent"/>
<ItemData ItemOID="IT.QS.QSSTRESC" Value="0"/>
<ItemData ItemOID="IT.QS.QSSTRESN" Value="0"/>
<ItemData ItemOID="IT.QS.VISITNUM" Value="1"/>
<ItemData ItemOID="IT.QS.VISIT" Value="SCREEN"/>
<ItemData ItemOID="IT.QS.VISITDY" Value="-13"/>
<ItemData ItemOID="IT.QS.QSDTC" Value="2003-10-06"/>
<ItemData ItemOID="IT.QS.QSDY" Value="-9"/>
<ItemData ItemOID="IT.QS.QSEVLINT" Value="-P1W"/>
</ItemGroupData>
<ItemGroupData ItemGroupOID="IG.QSCS" data:ItemGroupDataSeq="142">
<ItemData ItemOID="IT.STUDYID" Value="CDISC01"/>
<ItemData ItemOID="IT.QS.DOMAIN" Value="QS"/>
<ItemData ItemOID="IT.USUBJID" Value="CDISC01.100014"/>
<ItemData ItemOID="IT.QS.QSSEQ" Value="68"/>
<ItemData ItemOID="IT.QS.QSTESTCD" Value="CSDD17"/>
<ItemData ItemOID="IT.QS.QSTEST" Value="Poor Self-Esteem"/>
<ItemData ItemOID="IT.QS.QSCAT" Value="CORNELL SCALE FOR DEPRESSION IN DEMENTIA (CSDD)"/>
<ItemData ItemOID="IT.QS.QSORRES" Value="Severe"/>
<ItemData ItemOID="IT.QS.QSSTRESC" Value="2"/>
<ItemData ItemOID="IT.QS.QSSTRESN" Value="2"/>
<ItemData ItemOID="IT.QS.QSBLFL" Value="Y"/>
<ItemData ItemOID="IT.QS.VISITNUM" Value="2"/>
<ItemData ItemOID="IT.QS.VISIT" Value="BASELINE"/>
<ItemData ItemOID="IT.QS.VISITDY" Value="1"/>
<ItemData ItemOID="IT.QS.QSDTC" Value="2003-10-15"/>
<ItemData ItemOID="IT.QS.QSDY" Value="1"/>
<ItemData ItemOID="IT.QS.QSEVLINT" Value="-P1W"/>
</ItemGroupData>
<ItemGroupData ItemGroupOID="IG.QSCS" data:ItemGroupDataSeq="143">
<ItemData ItemOID="IT.STUDYID" Value="CDISC01"/>
<ItemData ItemOID="IT.QS.DOMAIN" Value="QS"/>
<ItemData ItemOID="IT.USUBJID" Value="CDISC01.100014"/>
<ItemData ItemOID="IT.QS.QSSEQ" Value="69"/>
<ItemData ItemOID="IT.QS.QSTESTCD" Value="CSDD17"/>
<ItemData ItemOID="IT.QS.QSTEST" Value="Poor Self-Esteem"/>
<ItemData ItemOID="IT.QS.QSCAT" Value="CORNELL SCALE FOR DEPRESSION IN DEMENTIA (CSDD)"/>
<ItemData ItemOID="IT.QS.QSORRES" Value="Mild or Intermittent"/>
<ItemData ItemOID="IT.QS.QSSTRESC" Value="1"/>
<ItemData ItemOID="IT.QS.QSSTRESN" Value="1"/>
<ItemData ItemOID="IT.QS.VISITNUM" Value="3"/>
<ItemData ItemOID="IT.QS.VISIT" Value="WEEK 2"/>
<ItemData ItemOID="IT.QS.VISITDY" Value="15"/>
<ItemData ItemOID="IT.QS.QSDTC" Value="2003-10-31"/>
<ItemData ItemOID="IT.QS.QSDY" Value="17"/>
<ItemData ItemOID="IT.QS.QSEVLINT" Value="-P1W"/>
</ItemGroupData>
<ItemGroupData ItemGroupOID="IG.QSCS" data:ItemGroupDataSeq="144">
<ItemData ItemOID="IT.STUDYID" Value="CDISC01"/>
<ItemData ItemOID="IT.QS.DOMAIN" Value="QS"/>
<ItemData ItemOID="IT.USUBJID" Value="CDISC01.100014"/>
<ItemData ItemOID="IT.QS.QSSEQ" Value="70"/>
<ItemData ItemOID="IT.QS.QSTESTCD" Value="CSDD17"/>
<ItemData ItemOID="IT.QS.QSTEST" Value="Poor Self-Esteem"/>
<ItemData ItemOID="IT.QS.QSCAT" Value="CORNELL SCALE FOR DEPRESSION IN DEMENTIA (CSDD)"/>
<ItemData ItemOID="IT.QS.QSORRES" Value="Mild or Intermittent"/>
<ItemData ItemOID="IT.QS.QSSTRESC" Value="1"/>
<ItemData ItemOID="IT.QS.QSSTRESN" Value="1"/>
<ItemData ItemOID="IT.QS.VISITNUM" Value="10"/>
<ItemData ItemOID="IT.QS.VISIT" Value="WEEK 24"/>
<ItemData ItemOID="IT.QS.VISITDY" Value="169"/>
<ItemData ItemOID="IT.QS.QSDTC" Value="2004-03-30"/>
<ItemData ItemOID="IT.QS.QSDY" Value="168"/>
<ItemData ItemOID="IT.QS.QSEVLINT" Value="-P1W"/>
</ItemGroupData>
<ItemGroupData ItemGroupOID="IG.QSCS" data:ItemGroupDataSeq="145">
<ItemData ItemOID="IT.STUDYID" Value="CDISC01"/>
<ItemData ItemOID="IT.QS.DOMAIN" Value="QS"/>
<ItemData ItemOID="IT.USUBJID" Value="CDISC01.100014"/>
<ItemData ItemOID="IT.QS.QSSEQ" Value="71"/>
<ItemData ItemOID="IT.QS.QSTESTCD" Value="CSDD18"/>
<ItemData ItemOID="IT.QS.QSTEST" Value="Pessimism"/>
<ItemData ItemOID="IT.QS.QSCAT" Value="CORNELL SCALE FOR DEPRESSION IN DEMENTIA (CSDD)"/>
<ItemData ItemOID="IT.QS.QSORRES" Value="Severe"/>
<ItemData ItemOID="IT.QS.QSSTRESC" Value="2"/>
<ItemData ItemOID="IT.QS.QSSTRESN" Value="2"/>
<ItemData ItemOID="IT.QS.VISITNUM" Value="1"/>
<ItemData ItemOID="IT.QS.VISIT" Value="SCREEN"/>
<ItemData ItemOID="IT.QS.VISITDY" Value="-13"/>
<ItemData ItemOID="IT.QS.QSDTC" Value="2003-10-06"/>
<ItemData ItemOID="IT.QS.QSDY" Value="-9"/>
<ItemData ItemOID="IT.QS.QSEVLINT" Value="-P1W"/>
</ItemGroupData>
<ItemGroupData ItemGroupOID="IG.QSCS" data:ItemGroupDataSeq="146">
<ItemData ItemOID="IT.STUDYID" Value="CDISC01"/>
<ItemData ItemOID="IT.QS.DOMAIN" Value="QS"/>
<ItemData ItemOID="IT.USUBJID" Value="CDISC01.100014"/>
<ItemData ItemOID="IT.QS.QSSEQ" Value="72"/>
<ItemData ItemOID="IT.QS.QSTESTCD" Value="CSDD18"/>
<ItemData ItemOID="IT.QS.QSTEST" Value="Pessimism"/>
<ItemData ItemOID="IT.QS.QSCAT" Value="CORNELL SCALE FOR DEPRESSION IN DEMENTIA (CSDD)"/>
<ItemData ItemOID="IT.QS.QSORRES" Value="Severe"/>
<ItemData ItemOID="IT.QS.QSSTRESC" Value="2"/>
<ItemData ItemOID="IT.QS.QSSTRESN" Value="2"/>
<ItemData ItemOID="IT.QS.QSBLFL" Value="Y"/>
<ItemData ItemOID="IT.QS.VISITNUM" Value="2"/>
<ItemData ItemOID="IT.QS.VISIT" Value="BASELINE"/>
<ItemData ItemOID="IT.QS.VISITDY" Value="1"/>
<ItemData ItemOID="IT.QS.QSDTC" Value="2003-10-15"/>
<ItemData ItemOID="IT.QS.QSDY" Value="1"/>
<ItemData ItemOID="IT.QS.QSEVLINT" Value="-P1W"/>
</ItemGroupData>
<ItemGroupData ItemGroupOID="IG.QSCS" data:ItemGroupDataSeq="147">
<ItemData ItemOID="IT.STUDYID" Value="CDISC01"/>
<ItemData ItemOID="IT.QS.DOMAIN" Value="QS"/>
<ItemData ItemOID="IT.USUBJID" Value="CDISC01.100014"/>
<ItemData ItemOID="IT.QS.QSSEQ" Value="73"/>
<ItemData ItemOID="IT.QS.QSTESTCD" Value="CSDD18"/>
<ItemData ItemOID="IT.QS.QSTEST" Value="Pessimism"/>
<ItemData ItemOID="IT.QS.QSCAT" Value="CORNELL SCALE FOR DEPRESSION IN DEMENTIA (CSDD)"/>
<ItemData ItemOID="IT.QS.QSORRES" Value="Absent"/>
<ItemData ItemOID="IT.QS.QSSTRESC" Value="0"/>
<ItemData ItemOID="IT.QS.QSSTRESN" Value="0"/>
<ItemData ItemOID="IT.QS.VISITNUM" Value="3"/>
<ItemData ItemOID="IT.QS.VISIT" Value="WEEK 2"/>
<ItemData ItemOID="IT.QS.VISITDY" Value="15"/>
<ItemData ItemOID="IT.QS.QSDTC" Value="2003-10-31"/>
<ItemData ItemOID="IT.QS.QSDY" Value="17"/>
<ItemData ItemOID="IT.QS.QSEVLINT" Value="-P1W"/>
</ItemGroupData>
<ItemGroupData ItemGroupOID="IG.QSCS" data:ItemGroupDataSeq="148">
<ItemData ItemOID="IT.STUDYID" Value="CDISC01"/>
<ItemData ItemOID="IT.QS.DOMAIN" Value="QS"/>
<ItemData ItemOID="IT.USUBJID" Value="CDISC01.100014"/>
<ItemData ItemOID="IT.QS.QSSEQ" Value="74"/>
<ItemData ItemOID="IT.QS.QSTESTCD" Value="CSDD18"/>
<ItemData ItemOID="IT.QS.QSTEST" Value="Pessimism"/>
<ItemData ItemOID="IT.QS.QSCAT" Value="CORNELL SCALE FOR DEPRESSION IN DEMENTIA (CSDD)"/>
<ItemData ItemOID="IT.QS.QSORRES" Value="Severe"/>
<ItemData ItemOID="IT.QS.QSSTRESC" Value="2"/>
<ItemData ItemOID="IT.QS.QSSTRESN" Value="2"/>
<ItemData ItemOID="IT.QS.VISITNUM" Value="10"/>
<ItemData ItemOID="IT.QS.VISIT" Value="WEEK 24"/>
<ItemData ItemOID="IT.QS.VISITDY" Value="169"/>
<ItemData ItemOID="IT.QS.QSDTC" Value="2004-03-30"/>
<ItemData ItemOID="IT.QS.QSDY" Value="168"/>
<ItemData ItemOID="IT.QS.QSEVLINT" Value="-P1W"/>
</ItemGroupData>
<ItemGroupData ItemGroupOID="IG.QSCS" data:ItemGroupDataSeq="149">
<ItemData ItemOID="IT.STUDYID" Value="CDISC01"/>
<ItemData ItemOID="IT.QS.DOMAIN" Value="QS"/>
<ItemData ItemOID="IT.USUBJID" Value="CDISC01.100014"/>
<ItemData ItemOID="IT.QS.QSSEQ" Value="75"/>
<ItemData ItemOID="IT.QS.QSTESTCD" Value="CSDD19"/>
<ItemData ItemOID="IT.QS.QSTEST" Value="Mood-Congruent Delusions"/>
<ItemData ItemOID="IT.QS.QSCAT" Value="CORNELL SCALE FOR DEPRESSION IN DEMENTIA (CSDD)"/>
<ItemData ItemOID="IT.QS.QSORRES" Value="Severe"/>
<ItemData ItemOID="IT.QS.QSSTRESC" Value="2"/>
<ItemData ItemOID="IT.QS.QSSTRESN" Value="2"/>
<ItemData ItemOID="IT.QS.VISITNUM" Value="1"/>
<ItemData ItemOID="IT.QS.VISIT" Value="SCREEN"/>
<ItemData ItemOID="IT.QS.VISITDY" Value="-13"/>
<ItemData ItemOID="IT.QS.QSDTC" Value="2003-10-06"/>
<ItemData ItemOID="IT.QS.QSDY" Value="-9"/>
<ItemData ItemOID="IT.QS.QSEVLINT" Value="-P1W"/>
</ItemGroupData>
<ItemGroupData ItemGroupOID="IG.QSCS" data:ItemGroupDataSeq="150">
<ItemData ItemOID="IT.STUDYID" Value="CDISC01"/>
<ItemData ItemOID="IT.QS.DOMAIN" Value="QS"/>
<ItemData ItemOID="IT.USUBJID" Value="CDISC01.100014"/>
<ItemData ItemOID="IT.QS.QSSEQ" Value="76"/>
<ItemData ItemOID="IT.QS.QSTESTCD" Value="CSDD19"/>
<ItemData ItemOID="IT.QS.QSTEST" Value="Mood-Congruent Delusions"/>
<ItemData ItemOID="IT.QS.QSCAT" Value="CORNELL SCALE FOR DEPRESSION IN DEMENTIA (CSDD)"/>
<ItemData ItemOID="IT.QS.QSORRES" Value="Severe"/>
<ItemData ItemOID="IT.QS.QSSTRESC" Value="2"/>
<ItemData ItemOID="IT.QS.QSSTRESN" Value="2"/>
<ItemData ItemOID="IT.QS.QSBLFL" Value="Y"/>
<ItemData ItemOID="IT.QS.VISITNUM" Value="2"/>
<ItemData ItemOID="IT.QS.VISIT" Value="BASELINE"/>
<ItemData ItemOID="IT.QS.VISITDY" Value="1"/>
<ItemData ItemOID="IT.QS.QSDTC" Value="2003-10-15"/>
<ItemData ItemOID="IT.QS.QSDY" Value="1"/>
<ItemData ItemOID="IT.QS.QSEVLINT" Value="-P1W"/>
</ItemGroupData>
<ItemGroupData ItemGroupOID="IG.QSCS" data:ItemGroupDataSeq="151">
<ItemData ItemOID="IT.STUDYID" Value="CDISC01"/>
<ItemData ItemOID="IT.QS.DOMAIN" Value="QS"/>
<ItemData ItemOID="IT.USUBJID" Value="CDISC01.100014"/>
<ItemData ItemOID="IT.QS.QSSEQ" Value="77"/>
<ItemData ItemOID="IT.QS.QSTESTCD" Value="CSDD19"/>
<ItemData ItemOID="IT.QS.QSTEST" Value="Mood-Congruent Delusions"/>
<ItemData ItemOID="IT.QS.QSCAT" Value="CORNELL SCALE FOR DEPRESSION IN DEMENTIA (CSDD)"/>
<ItemData ItemOID="IT.QS.QSORRES" Value="Absent"/>
<ItemData ItemOID="IT.QS.QSSTRESC" Value="0"/>
<ItemData ItemOID="IT.QS.QSSTRESN" Value="0"/>
<ItemData ItemOID="IT.QS.VISITNUM" Value="3"/>
<ItemData ItemOID="IT.QS.VISIT" Value="WEEK 2"/>
<ItemData ItemOID="IT.QS.VISITDY" Value="15"/>
<ItemData ItemOID="IT.QS.QSDTC" Value="2003-10-31"/>
<ItemData ItemOID="IT.QS.QSDY" Value="17"/>
<ItemData ItemOID="IT.QS.QSEVLINT" Value="-P1W"/>
</ItemGroupData>
<ItemGroupData ItemGroupOID="IG.QSCS" data:ItemGroupDataSeq="152">
<ItemData ItemOID="IT.STUDYID" Value="CDISC01"/>
<ItemData ItemOID="IT.QS.DOMAIN" Value="QS"/>
<ItemData ItemOID="IT.USUBJID" Value="CDISC01.100014"/>
<ItemData ItemOID="IT.QS.QSSEQ" Value="78"/>
<ItemData ItemOID="IT.QS.QSTESTCD" Value="CSDD19"/>
<ItemData ItemOID="IT.QS.QSTEST" Value="Mood-Congruent Delusions"/>
<ItemData ItemOID="IT.QS.QSCAT" Value="CORNELL SCALE FOR DEPRESSION IN DEMENTIA (CSDD)"/>
<ItemData ItemOID="IT.QS.QSORRES" Value="Absent"/>
<ItemData ItemOID="IT.QS.QSSTRESC" Value="0"/>
<ItemData ItemOID="IT.QS.QSSTRESN" Value="0"/>
<ItemData ItemOID="IT.QS.VISITNUM" Value="10"/>
<ItemData ItemOID="IT.QS.VISIT" Value="WEEK 24"/>
<ItemData ItemOID="IT.QS.VISITDY" Value="169"/>
<ItemData ItemOID="IT.QS.QSDTC" Value="2004-03-30"/>
<ItemData ItemOID="IT.QS.QSDY" Value="168"/>
<ItemData ItemOID="IT.QS.QSEVLINT" Value="-P1W"/>
</ItemGroupData>
<ItemGroupData ItemGroupOID="IG.QSCS" data:ItemGroupDataSeq="153">
<ItemData ItemOID="IT.STUDYID" Value="CDISC01"/>
<ItemData ItemOID="IT.QS.DOMAIN" Value="QS"/>
<ItemData ItemOID="IT.USUBJID" Value="CDISC01.100014"/>
<ItemData ItemOID="IT.QS.QSSEQ" Value="79"/>
<ItemData ItemOID="IT.QS.QSTESTCD" Value="CSDDTOT"/>
<ItemData ItemOID="IT.QS.QSTEST" Value="Total Score"/>
<ItemData ItemOID="IT.QS.QSCAT" Value="CORNELL SCALE FOR DEPRESSION IN DEMENTIA (CSDD)"/>
<ItemData ItemOID="IT.QS.QSORRES" Value="20"/>
<ItemData ItemOID="IT.QS.QSSTRESC" Value="20"/>
<ItemData ItemOID="IT.QS.QSSTRESN" Value="20"/>
<ItemData ItemOID="IT.QS.VISITNUM" Value="1"/>
<ItemData ItemOID="IT.QS.VISIT" Value="SCREEN"/>
<ItemData ItemOID="IT.QS.VISITDY" Value="-13"/>
<ItemData ItemOID="IT.QS.QSDTC" Value="2003-10-06"/>
<ItemData ItemOID="IT.QS.QSDY" Value="-9"/>
<ItemData ItemOID="IT.QS.QSEVLINT" Value="-P1W"/>
</ItemGroupData>
<ItemGroupData ItemGroupOID="IG.QSCS" data:ItemGroupDataSeq="154">
<ItemData ItemOID="IT.STUDYID" Value="CDISC01"/>
<ItemData ItemOID="IT.QS.DOMAIN" Value="QS"/>
<ItemData ItemOID="IT.USUBJID" Value="CDISC01.100014"/>
<ItemData ItemOID="IT.QS.QSSEQ" Value="80"/>
<ItemData ItemOID="IT.QS.QSTESTCD" Value="CSDDTOT"/>
<ItemData ItemOID="IT.QS.QSTEST" Value="Total Score"/>
<ItemData ItemOID="IT.QS.QSCAT" Value="CORNELL SCALE FOR DEPRESSION IN DEMENTIA (CSDD)"/>
<ItemData ItemOID="IT.QS.QSORRES" Value="19"/>
<ItemData ItemOID="IT.QS.QSSTRESC" Value="19"/>
<ItemData ItemOID="IT.QS.QSSTRESN" Value="19"/>
<ItemData ItemOID="IT.QS.QSBLFL" Value="Y"/>
<ItemData ItemOID="IT.QS.VISITNUM" Value="2"/>
<ItemData ItemOID="IT.QS.VISIT" Value="BASELINE"/>
<ItemData ItemOID="IT.QS.VISITDY" Value="1"/>
<ItemData ItemOID="IT.QS.QSDTC" Value="2003-10-15"/>
<ItemData ItemOID="IT.QS.QSDY" Value="1"/>
<ItemData ItemOID="IT.QS.QSEVLINT" Value="-P1W"/>
</ItemGroupData>
<ItemGroupData ItemGroupOID="IG.QSCS" data:ItemGroupDataSeq="155">
<ItemData ItemOID="IT.STUDYID" Value="CDISC01"/>
<ItemData ItemOID="IT.QS.DOMAIN" Value="QS"/>
<ItemData ItemOID="IT.USUBJID" Value="CDISC01.200001"/>
<ItemData ItemOID="IT.QS.QSSEQ" Value="3"/>
<ItemData ItemOID="IT.QS.QSTESTCD" Value="CSDD01"/>
<ItemData ItemOID="IT.QS.QSTEST" Value="Anxiety"/>
<ItemData ItemOID="IT.QS.QSCAT" Value="CORNELL SCALE FOR DEPRESSION IN DEMENTIA (CSDD)"/>
<ItemData ItemOID="IT.QS.QSORRES" Value="Severe"/>
<ItemData ItemOID="IT.QS.QSSTRESC" Value="2"/>
<ItemData ItemOID="IT.QS.QSSTRESN" Value="2"/>
<ItemData ItemOID="IT.QS.VISITNUM" Value="1"/>
<ItemData ItemOID="IT.QS.VISIT" Value="SCREEN"/>
<ItemData ItemOID="IT.QS.VISITDY" Value="-13"/>
<ItemData ItemOID="IT.QS.QSDTC" Value="2003-09-09"/>
<ItemData ItemOID="IT.QS.QSDY" Value="-21"/>
<ItemData ItemOID="IT.QS.QSEVLINT" Value="-P1W"/>
</ItemGroupData>
<ItemGroupData ItemGroupOID="IG.QSCS" data:ItemGroupDataSeq="156">
<ItemData ItemOID="IT.STUDYID" Value="CDISC01"/>
<ItemData ItemOID="IT.QS.DOMAIN" Value="QS"/>
<ItemData ItemOID="IT.USUBJID" Value="CDISC01.200001"/>
<ItemData ItemOID="IT.QS.QSSEQ" Value="4"/>
<ItemData ItemOID="IT.QS.QSTESTCD" Value="CSDD01"/>
<ItemData ItemOID="IT.QS.QSTEST" Value="Anxiety"/>
<ItemData ItemOID="IT.QS.QSCAT" Value="CORNELL SCALE FOR DEPRESSION IN DEMENTIA (CSDD)"/>
<ItemData ItemOID="IT.QS.QSORRES" Value="Severe"/>
<ItemData ItemOID="IT.QS.QSSTRESC" Value="2"/>
<ItemData ItemOID="IT.QS.QSSTRESN" Value="2"/>
<ItemData ItemOID="IT.QS.QSBLFL" Value="Y"/>
<ItemData ItemOID="IT.QS.VISITNUM" Value="2"/>
<ItemData ItemOID="IT.QS.VISIT" Value="BASELINE"/>
<ItemData ItemOID="IT.QS.VISITDY" Value="1"/>
<ItemData ItemOID="IT.QS.QSDTC" Value="2003-09-30"/>
<ItemData ItemOID="IT.QS.QSDY" Value="1"/>
<ItemData ItemOID="IT.QS.QSEVLINT" Value="-P1W"/>
</ItemGroupData>
<ItemGroupData ItemGroupOID="IG.QSCS" data:ItemGroupDataSeq="157">
<ItemData ItemOID="IT.STUDYID" Value="CDISC01"/>
<ItemData ItemOID="IT.QS.DOMAIN" Value="QS"/>
<ItemData ItemOID="IT.USUBJID" Value="CDISC01.200001"/>
<ItemData ItemOID="IT.QS.QSSEQ" Value="5"/>
<ItemData ItemOID="IT.QS.QSTESTCD" Value="CSDD01"/>
<ItemData ItemOID="IT.QS.QSTEST" Value="Anxiety"/>
<ItemData ItemOID="IT.QS.QSCAT" Value="CORNELL SCALE FOR DEPRESSION IN DEMENTIA (CSDD)"/>
<ItemData ItemOID="IT.QS.QSORRES" Value="Severe"/>
<ItemData ItemOID="IT.QS.QSSTRESC" Value="2"/>
<ItemData ItemOID="IT.QS.QSSTRESN" Value="2"/>
<ItemData ItemOID="IT.QS.VISITNUM" Value="3"/>
<ItemData ItemOID="IT.QS.VISIT" Value="WEEK 2"/>
<ItemData ItemOID="IT.QS.VISITDY" Value="15"/>
<ItemData ItemOID="IT.QS.QSDTC" Value="2003-10-14"/>
<ItemData ItemOID="IT.QS.QSDY" Value="15"/>
<ItemData ItemOID="IT.QS.QSEVLINT" Value="-P1W"/>
</ItemGroupData>
<ItemGroupData ItemGroupOID="IG.QSCS" data:ItemGroupDataSeq="158">
<ItemData ItemOID="IT.STUDYID" Value="CDISC01"/>
<ItemData ItemOID="IT.QS.DOMAIN" Value="QS"/>
<ItemData ItemOID="IT.USUBJID" Value="CDISC01.200001"/>
<ItemData ItemOID="IT.QS.QSSEQ" Value="6"/>
<ItemData ItemOID="IT.QS.QSTESTCD" Value="CSDD01"/>
<ItemData ItemOID="IT.QS.QSTEST" Value="Anxiety"/>
<ItemData ItemOID="IT.QS.QSCAT" Value="CORNELL SCALE FOR DEPRESSION IN DEMENTIA (CSDD)"/>
<ItemData ItemOID="IT.QS.QSORRES" Value="Severe"/>
<ItemData ItemOID="IT.QS.QSSTRESC" Value="2"/>
<ItemData ItemOID="IT.QS.QSSTRESN" Value="2"/>
<ItemData ItemOID="IT.QS.VISITNUM" Value="10"/>
<ItemData ItemOID="IT.QS.VISIT" Value="WEEK 24"/>
<ItemData ItemOID="IT.QS.VISITDY" Value="169"/>
<ItemData ItemOID="IT.QS.QSDTC" Value="2004-02-02"/>
<ItemData ItemOID="IT.QS.QSDY" Value="126"/>
<ItemData ItemOID="IT.QS.QSEVLINT" Value="-P1W"/>
</ItemGroupData>
<ItemGroupData ItemGroupOID="IG.QSCS" data:ItemGroupDataSeq="159">
<ItemData ItemOID="IT.STUDYID" Value="CDISC01"/>
<ItemData ItemOID="IT.QS.DOMAIN" Value="QS"/>
<ItemData ItemOID="IT.USUBJID" Value="CDISC01.200001"/>
<ItemData ItemOID="IT.QS.QSSEQ" Value="7"/>
<ItemData ItemOID="IT.QS.QSTESTCD" Value="CSDD02"/>
<ItemData ItemOID="IT.QS.QSTEST" Value="Sadness"/>
<ItemData ItemOID="IT.QS.QSCAT" Value="CORNELL SCALE FOR DEPRESSION IN DEMENTIA (CSDD)"/>
<ItemData ItemOID="IT.QS.QSORRES" Value="Severe"/>
<ItemData ItemOID="IT.QS.QSSTRESC" Value="2"/>
<ItemData ItemOID="IT.QS.QSSTRESN" Value="2"/>
<ItemData ItemOID="IT.QS.VISITNUM" Value="1"/>
<ItemData ItemOID="IT.QS.VISIT" Value="SCREEN"/>
<ItemData ItemOID="IT.QS.VISITDY" Value="-13"/>
<ItemData ItemOID="IT.QS.QSDTC" Value="2003-09-09"/>
<ItemData ItemOID="IT.QS.QSDY" Value="-21"/>
<ItemData ItemOID="IT.QS.QSEVLINT" Value="-P1W"/>
</ItemGroupData>
<ItemGroupData ItemGroupOID="IG.QSCS" data:ItemGroupDataSeq="160">
<ItemData ItemOID="IT.STUDYID" Value="CDISC01"/>
<ItemData ItemOID="IT.QS.DOMAIN" Value="QS"/>
<ItemData ItemOID="IT.USUBJID" Value="CDISC01.200001"/>
<ItemData ItemOID="IT.QS.QSSEQ" Value="8"/>
<ItemData ItemOID="IT.QS.QSTESTCD" Value="CSDD02"/>
<ItemData ItemOID="IT.QS.QSTEST" Value="Sadness"/>
<ItemData ItemOID="IT.QS.QSCAT" Value="CORNELL SCALE FOR DEPRESSION IN DEMENTIA (CSDD)"/>
<ItemData ItemOID="IT.QS.QSORRES" Value="Mild or Intermittent"/>
<ItemData ItemOID="IT.QS.QSSTRESC" Value="1"/>
<ItemData ItemOID="IT.QS.QSSTRESN" Value="1"/>
<ItemData ItemOID="IT.QS.QSBLFL" Value="Y"/>
<ItemData ItemOID="IT.QS.VISITNUM" Value="2"/>
<ItemData ItemOID="IT.QS.VISIT" Value="BASELINE"/>
<ItemData ItemOID="IT.QS.VISITDY" Value="1"/>
<ItemData ItemOID="IT.QS.QSDTC" Value="2003-09-30"/>
<ItemData ItemOID="IT.QS.QSDY" Value="1"/>
<ItemData ItemOID="IT.QS.QSEVLINT" Value="-P1W"/>
</ItemGroupData>
<ItemGroupData ItemGroupOID="IG.QSCS" data:ItemGroupDataSeq="161">
<ItemData ItemOID="IT.STUDYID" Value="CDISC01"/>
<ItemData ItemOID="IT.QS.DOMAIN" Value="QS"/>
<ItemData ItemOID="IT.USUBJID" Value="CDISC01.200001"/>
<ItemData ItemOID="IT.QS.QSSEQ" Value="9"/>
<ItemData ItemOID="IT.QS.QSTESTCD" Value="CSDD02"/>
<ItemData ItemOID="IT.QS.QSTEST" Value="Sadness"/>
<ItemData ItemOID="IT.QS.QSCAT" Value="CORNELL SCALE FOR DEPRESSION IN DEMENTIA (CSDD)"/>
<ItemData ItemOID="IT.QS.QSORRES" Value="Mild or Intermittent"/>
<ItemData ItemOID="IT.QS.QSSTRESC" Value="1"/>
<ItemData ItemOID="IT.QS.QSSTRESN" Value="1"/>
<ItemData ItemOID="IT.QS.VISITNUM" Value="3"/>
<ItemData ItemOID="IT.QS.VISIT" Value="WEEK 2"/>
<ItemData ItemOID="IT.QS.VISITDY" Value="15"/>
<ItemData ItemOID="IT.QS.QSDTC" Value="2003-10-14"/>
<ItemData ItemOID="IT.QS.QSDY" Value="15"/>
<ItemData ItemOID="IT.QS.QSEVLINT" Value="-P1W"/>
</ItemGroupData>
<ItemGroupData ItemGroupOID="IG.QSCS" data:ItemGroupDataSeq="162">
<ItemData ItemOID="IT.STUDYID" Value="CDISC01"/>
<ItemData ItemOID="IT.QS.DOMAIN" Value="QS"/>
<ItemData ItemOID="IT.USUBJID" Value="CDISC01.200001"/>
<ItemData ItemOID="IT.QS.QSSEQ" Value="10"/>
<ItemData ItemOID="IT.QS.QSTESTCD" Value="CSDD02"/>
<ItemData ItemOID="IT.QS.QSTEST" Value="Sadness"/>
<ItemData ItemOID="IT.QS.QSCAT" Value="CORNELL SCALE FOR DEPRESSION IN DEMENTIA (CSDD)"/>
<ItemData ItemOID="IT.QS.QSORRES" Value="Severe"/>
<ItemData ItemOID="IT.QS.QSSTRESC" Value="2"/>
<ItemData ItemOID="IT.QS.QSSTRESN" Value="2"/>
<ItemData ItemOID="IT.QS.VISITNUM" Value="10"/>
<ItemData ItemOID="IT.QS.VISIT" Value="WEEK 24"/>
<ItemData ItemOID="IT.QS.VISITDY" Value="169"/>
<ItemData ItemOID="IT.QS.QSDTC" Value="2004-02-02"/>
<ItemData ItemOID="IT.QS.QSDY" Value="126"/>
<ItemData ItemOID="IT.QS.QSEVLINT" Value="-P1W"/>
</ItemGroupData>
<ItemGroupData ItemGroupOID="IG.QSCS" data:ItemGroupDataSeq="163">
<ItemData ItemOID="IT.STUDYID" Value="CDISC01"/>
<ItemData ItemOID="IT.QS.DOMAIN" Value="QS"/>
<ItemData ItemOID="IT.USUBJID" Value="CDISC01.200001"/>
<ItemData ItemOID="IT.QS.QSSEQ" Value="11"/>
<ItemData ItemOID="IT.QS.QSTESTCD" Value="CSDD03"/>
<ItemData ItemOID="IT.QS.QSTEST" Value="Lack of Reactivity to Pleasant Events"/>
<ItemData ItemOID="IT.QS.QSCAT" Value="CORNELL SCALE FOR DEPRESSION IN DEMENTIA (CSDD)"/>
<ItemData ItemOID="IT.QS.QSORRES" Value="Absent"/>
<ItemData ItemOID="IT.QS.QSSTRESC" Value="0"/>
<ItemData ItemOID="IT.QS.QSSTRESN" Value="0"/>
<ItemData ItemOID="IT.QS.VISITNUM" Value="1"/>
<ItemData ItemOID="IT.QS.VISIT" Value="SCREEN"/>
<ItemData ItemOID="IT.QS.VISITDY" Value="-13"/>
<ItemData ItemOID="IT.QS.QSDTC" Value="2003-09-09"/>
<ItemData ItemOID="IT.QS.QSDY" Value="-21"/>
<ItemData ItemOID="IT.QS.QSEVLINT" Value="-P1W"/>
</ItemGroupData>
<ItemGroupData ItemGroupOID="IG.QSCS" data:ItemGroupDataSeq="164">
<ItemData ItemOID="IT.STUDYID" Value="CDISC01"/>
<ItemData ItemOID="IT.QS.DOMAIN" Value="QS"/>
<ItemData ItemOID="IT.USUBJID" Value="CDISC01.200001"/>
<ItemData ItemOID="IT.QS.QSSEQ" Value="12"/>
<ItemData ItemOID="IT.QS.QSTESTCD" Value="CSDD03"/>
<ItemData ItemOID="IT.QS.QSTEST" Value="Lack of Reactivity to Pleasant Events"/>
<ItemData ItemOID="IT.QS.QSCAT" Value="CORNELL SCALE FOR DEPRESSION IN DEMENTIA (CSDD)"/>
<ItemData ItemOID="IT.QS.QSORRES" Value="Severe"/>
<ItemData ItemOID="IT.QS.QSSTRESC" Value="2"/>
<ItemData ItemOID="IT.QS.QSSTRESN" Value="2"/>
<ItemData ItemOID="IT.QS.QSBLFL" Value="Y"/>
<ItemData ItemOID="IT.QS.VISITNUM" Value="2"/>
<ItemData ItemOID="IT.QS.VISIT" Value="BASELINE"/>
<ItemData ItemOID="IT.QS.VISITDY" Value="1"/>
<ItemData ItemOID="IT.QS.QSDTC" Value="2003-09-30"/>
<ItemData ItemOID="IT.QS.QSDY" Value="1"/>
<ItemData ItemOID="IT.QS.QSEVLINT" Value="-P1W"/>
</ItemGroupData>
<ItemGroupData ItemGroupOID="IG.QSCS" data:ItemGroupDataSeq="165">
<ItemData ItemOID="IT.STUDYID" Value="CDISC01"/>
<ItemData ItemOID="IT.QS.DOMAIN" Value="QS"/>
<ItemData ItemOID="IT.USUBJID" Value="CDISC01.200001"/>
<ItemData ItemOID="IT.QS.QSSEQ" Value="13"/>
<ItemData ItemOID="IT.QS.QSTESTCD" Value="CSDD03"/>
<ItemData ItemOID="IT.QS.QSTEST" Value="Lack of Reactivity to Pleasant Events"/>
<ItemData ItemOID="IT.QS.QSCAT" Value="CORNELL SCALE FOR DEPRESSION IN DEMENTIA (CSDD)"/>
<ItemData ItemOID="IT.QS.QSORRES" Value="Mild or Intermittent"/>
<ItemData ItemOID="IT.QS.QSSTRESC" Value="1"/>
<ItemData ItemOID="IT.QS.QSSTRESN" Value="1"/>
<ItemData ItemOID="IT.QS.VISITNUM" Value="3"/>
<ItemData ItemOID="IT.QS.VISIT" Value="WEEK 2"/>
<ItemData ItemOID="IT.QS.VISITDY" Value="15"/>
<ItemData ItemOID="IT.QS.QSDTC" Value="2003-10-14"/>
<ItemData ItemOID="IT.QS.QSDY" Value="15"/>
<ItemData ItemOID="IT.QS.QSEVLINT" Value="-P1W"/>
</ItemGroupData>
<ItemGroupData ItemGroupOID="IG.QSCS" data:ItemGroupDataSeq="166">
<ItemData ItemOID="IT.STUDYID" Value="CDISC01"/>
<ItemData ItemOID="IT.QS.DOMAIN" Value="QS"/>
<ItemData ItemOID="IT.USUBJID" Value="CDISC01.200001"/>
<ItemData ItemOID="IT.QS.QSSEQ" Value="14"/>
<ItemData ItemOID="IT.QS.QSTESTCD" Value="CSDD03"/>
<ItemData ItemOID="IT.QS.QSTEST" Value="Lack of Reactivity to Pleasant Events"/>
<ItemData ItemOID="IT.QS.QSCAT" Value="CORNELL SCALE FOR DEPRESSION IN DEMENTIA (CSDD)"/>
<ItemData ItemOID="IT.QS.QSORRES" Value="Severe"/>
<ItemData ItemOID="IT.QS.QSSTRESC" Value="2"/>
<ItemData ItemOID="IT.QS.QSSTRESN" Value="2"/>
<ItemData ItemOID="IT.QS.VISITNUM" Value="10"/>
<ItemData ItemOID="IT.QS.VISIT" Value="WEEK 24"/>
<ItemData ItemOID="IT.QS.VISITDY" Value="169"/>
<ItemData ItemOID="IT.QS.QSDTC" Value="2004-02-02"/>
<ItemData ItemOID="IT.QS.QSDY" Value="126"/>
<ItemData ItemOID="IT.QS.QSEVLINT" Value="-P1W"/>
</ItemGroupData>
<ItemGroupData ItemGroupOID="IG.QSCS" data:ItemGroupDataSeq="167">
<ItemData ItemOID="IT.STUDYID" Value="CDISC01"/>
<ItemData ItemOID="IT.QS.DOMAIN" Value="QS"/>
<ItemData ItemOID="IT.USUBJID" Value="CDISC01.200001"/>
<ItemData ItemOID="IT.QS.QSSEQ" Value="15"/>
<ItemData ItemOID="IT.QS.QSTESTCD" Value="CSDD04"/>
<ItemData ItemOID="IT.QS.QSTEST" Value="Irritability"/>
<ItemData ItemOID="IT.QS.QSCAT" Value="CORNELL SCALE FOR DEPRESSION IN DEMENTIA (CSDD)"/>
<ItemData ItemOID="IT.QS.QSORRES" Value="Severe"/>
<ItemData ItemOID="IT.QS.QSSTRESC" Value="2"/>
<ItemData ItemOID="IT.QS.QSSTRESN" Value="2"/>
<ItemData ItemOID="IT.QS.VISITNUM" Value="1"/>
<ItemData ItemOID="IT.QS.VISIT" Value="SCREEN"/>
<ItemData ItemOID="IT.QS.VISITDY" Value="-13"/>
<ItemData ItemOID="IT.QS.QSDTC" Value="2003-09-09"/>
<ItemData ItemOID="IT.QS.QSDY" Value="-21"/>
<ItemData ItemOID="IT.QS.QSEVLINT" Value="-P1W"/>
</ItemGroupData>
<ItemGroupData ItemGroupOID="IG.QSCS" data:ItemGroupDataSeq="168">
<ItemData ItemOID="IT.STUDYID" Value="CDISC01"/>
<ItemData ItemOID="IT.QS.DOMAIN" Value="QS"/>
<ItemData ItemOID="IT.USUBJID" Value="CDISC01.200001"/>
<ItemData ItemOID="IT.QS.QSSEQ" Value="16"/>
<ItemData ItemOID="IT.QS.QSTESTCD" Value="CSDD04"/>
<ItemData ItemOID="IT.QS.QSTEST" Value="Irritability"/>
<ItemData ItemOID="IT.QS.QSCAT" Value="CORNELL SCALE FOR DEPRESSION IN DEMENTIA (CSDD)"/>
<ItemData ItemOID="IT.QS.QSORRES" Value="Mild or Intermittent"/>
<ItemData ItemOID="IT.QS.QSSTRESC" Value="1"/>
<ItemData ItemOID="IT.QS.QSSTRESN" Value="1"/>
<ItemData ItemOID="IT.QS.QSBLFL" Value="Y"/>
<ItemData ItemOID="IT.QS.VISITNUM" Value="2"/>
<ItemData ItemOID="IT.QS.VISIT" Value="BASELINE"/>
<ItemData ItemOID="IT.QS.VISITDY" Value="1"/>
<ItemData ItemOID="IT.QS.QSDTC" Value="2003-09-30"/>
<ItemData ItemOID="IT.QS.QSDY" Value="1"/>
<ItemData ItemOID="IT.QS.QSEVLINT" Value="-P1W"/>
</ItemGroupData>
<ItemGroupData ItemGroupOID="IG.QSCS" data:ItemGroupDataSeq="169">
<ItemData ItemOID="IT.STUDYID" Value="CDISC01"/>
<ItemData ItemOID="IT.QS.DOMAIN" Value="QS"/>
<ItemData ItemOID="IT.USUBJID" Value="CDISC01.200001"/>
<ItemData ItemOID="IT.QS.QSSEQ" Value="17"/>
<ItemData ItemOID="IT.QS.QSTESTCD" Value="CSDD04"/>
<ItemData ItemOID="IT.QS.QSTEST" Value="Irritability"/>
<ItemData ItemOID="IT.QS.QSCAT" Value="CORNELL SCALE FOR DEPRESSION IN DEMENTIA (CSDD)"/>
<ItemData ItemOID="IT.QS.QSORRES" Value="Absent"/>
<ItemData ItemOID="IT.QS.QSSTRESC" Value="0"/>
<ItemData ItemOID="IT.QS.QSSTRESN" Value="0"/>
<ItemData ItemOID="IT.QS.VISITNUM" Value="3"/>
<ItemData ItemOID="IT.QS.VISIT" Value="WEEK 2"/>
<ItemData ItemOID="IT.QS.VISITDY" Value="15"/>
<ItemData ItemOID="IT.QS.QSDTC" Value="2003-10-14"/>
<ItemData ItemOID="IT.QS.QSDY" Value="15"/>
<ItemData ItemOID="IT.QS.QSEVLINT" Value="-P1W"/>
</ItemGroupData>
<ItemGroupData ItemGroupOID="IG.QSCS" data:ItemGroupDataSeq="170">
<ItemData ItemOID="IT.STUDYID" Value="CDISC01"/>
<ItemData ItemOID="IT.QS.DOMAIN" Value="QS"/>
<ItemData ItemOID="IT.USUBJID" Value="CDISC01.200001"/>
<ItemData ItemOID="IT.QS.QSSEQ" Value="18"/>
<ItemData ItemOID="IT.QS.QSTESTCD" Value="CSDD04"/>
<ItemData ItemOID="IT.QS.QSTEST" Value="Irritability"/>
<ItemData ItemOID="IT.QS.QSCAT" Value="CORNELL SCALE FOR DEPRESSION IN DEMENTIA (CSDD)"/>
<ItemData ItemOID="IT.QS.QSORRES" Value="Severe"/>
<ItemData ItemOID="IT.QS.QSSTRESC" Value="2"/>
<ItemData ItemOID="IT.QS.QSSTRESN" Value="2"/>
<ItemData ItemOID="IT.QS.VISITNUM" Value="10"/>
<ItemData ItemOID="IT.QS.VISIT" Value="WEEK 24"/>
<ItemData ItemOID="IT.QS.VISITDY" Value="169"/>
<ItemData ItemOID="IT.QS.QSDTC" Value="2004-02-02"/>
<ItemData ItemOID="IT.QS.QSDY" Value="126"/>
<ItemData ItemOID="IT.QS.QSEVLINT" Value="-P1W"/>
</ItemGroupData>
<ItemGroupData ItemGroupOID="IG.QSCS" data:ItemGroupDataSeq="171">
<ItemData ItemOID="IT.STUDYID" Value="CDISC01"/>
<ItemData ItemOID="IT.QS.DOMAIN" Value="QS"/>
<ItemData ItemOID="IT.USUBJID" Value="CDISC01.200001"/>
<ItemData ItemOID="IT.QS.QSSEQ" Value="19"/>
<ItemData ItemOID="IT.QS.QSTESTCD" Value="CSDD05"/>
<ItemData ItemOID="IT.QS.QSTEST" Value="Agitation"/>
<ItemData ItemOID="IT.QS.QSCAT" Value="CORNELL SCALE FOR DEPRESSION IN DEMENTIA (CSDD)"/>
<ItemData ItemOID="IT.QS.QSORRES" Value="Mild or Intermittent"/>
<ItemData ItemOID="IT.QS.QSSTRESC" Value="1"/>
<ItemData ItemOID="IT.QS.QSSTRESN" Value="1"/>
<ItemData ItemOID="IT.QS.VISITNUM" Value="1"/>
<ItemData ItemOID="IT.QS.VISIT" Value="SCREEN"/>
<ItemData ItemOID="IT.QS.VISITDY" Value="-13"/>
<ItemData ItemOID="IT.QS.QSDTC" Value="2003-09-09"/>
<ItemData ItemOID="IT.QS.QSDY" Value="-21"/>
<ItemData ItemOID="IT.QS.QSEVLINT" Value="-P1W"/>
</ItemGroupData>
<ItemGroupData ItemGroupOID="IG.QSCS" data:ItemGroupDataSeq="172">
<ItemData ItemOID="IT.STUDYID" Value="CDISC01"/>
<ItemData ItemOID="IT.QS.DOMAIN" Value="QS"/>
<ItemData ItemOID="IT.USUBJID" Value="CDISC01.200001"/>
<ItemData ItemOID="IT.QS.QSSEQ" Value="20"/>
<ItemData ItemOID="IT.QS.QSTESTCD" Value="CSDD05"/>
<ItemData ItemOID="IT.QS.QSTEST" Value="Agitation"/>
<ItemData ItemOID="IT.QS.QSCAT" Value="CORNELL SCALE FOR DEPRESSION IN DEMENTIA (CSDD)"/>
<ItemData ItemOID="IT.QS.QSORRES" Value="Absent"/>
<ItemData ItemOID="IT.QS.QSSTRESC" Value="0"/>
<ItemData ItemOID="IT.QS.QSSTRESN" Value="0"/>
<ItemData ItemOID="IT.QS.QSBLFL" Value="Y"/>
<ItemData ItemOID="IT.QS.VISITNUM" Value="2"/>
<ItemData ItemOID="IT.QS.VISIT" Value="BASELINE"/>
<ItemData ItemOID="IT.QS.VISITDY" Value="1"/>
<ItemData ItemOID="IT.QS.QSDTC" Value="2003-09-30"/>
<ItemData ItemOID="IT.QS.QSDY" Value="1"/>
<ItemData ItemOID="IT.QS.QSEVLINT" Value="-P1W"/>
</ItemGroupData>
<ItemGroupData ItemGroupOID="IG.QSCS" data:ItemGroupDataSeq="173">
<ItemData ItemOID="IT.STUDYID" Value="CDISC01"/>
<ItemData ItemOID="IT.QS.DOMAIN" Value="QS"/>
<ItemData ItemOID="IT.USUBJID" Value="CDISC01.200001"/>
<ItemData ItemOID="IT.QS.QSSEQ" Value="21"/>
<ItemData ItemOID="IT.QS.QSTESTCD" Value="CSDD05"/>
<ItemData ItemOID="IT.QS.QSTEST" Value="Agitation"/>
<ItemData ItemOID="IT.QS.QSCAT" Value="CORNELL SCALE FOR DEPRESSION IN DEMENTIA (CSDD)"/>
<ItemData ItemOID="IT.QS.QSORRES" Value="Mild or Intermittent"/>
<ItemData ItemOID="IT.QS.QSSTRESC" Value="1"/>
<ItemData ItemOID="IT.QS.QSSTRESN" Value="1"/>
<ItemData ItemOID="IT.QS.VISITNUM" Value="3"/>
<ItemData ItemOID="IT.QS.VISIT" Value="WEEK 2"/>
<ItemData ItemOID="IT.QS.VISITDY" Value="15"/>
<ItemData ItemOID="IT.QS.QSDTC" Value="2003-10-14"/>
<ItemData ItemOID="IT.QS.QSDY" Value="15"/>
<ItemData ItemOID="IT.QS.QSEVLINT" Value="-P1W"/>
</ItemGroupData>
<ItemGroupData ItemGroupOID="IG.QSCS" data:ItemGroupDataSeq="174">
<ItemData ItemOID="IT.STUDYID" Value="CDISC01"/>
<ItemData ItemOID="IT.QS.DOMAIN" Value="QS"/>
<ItemData ItemOID="IT.USUBJID" Value="CDISC01.200001"/>
<ItemData ItemOID="IT.QS.QSSEQ" Value="22"/>
<ItemData ItemOID="IT.QS.QSTESTCD" Value="CSDD05"/>
<ItemData ItemOID="IT.QS.QSTEST" Value="Agitation"/>
<ItemData ItemOID="IT.QS.QSCAT" Value="CORNELL SCALE FOR DEPRESSION IN DEMENTIA (CSDD)"/>
<ItemData ItemOID="IT.QS.QSORRES" Value="Severe"/>
<ItemData ItemOID="IT.QS.QSSTRESC" Value="2"/>
<ItemData ItemOID="IT.QS.QSSTRESN" Value="2"/>
<ItemData ItemOID="IT.QS.VISITNUM" Value="10"/>
<ItemData ItemOID="IT.QS.VISIT" Value="WEEK 24"/>
<ItemData ItemOID="IT.QS.VISITDY" Value="169"/>
<ItemData ItemOID="IT.QS.QSDTC" Value="2004-02-02"/>
<ItemData ItemOID="IT.QS.QSDY" Value="126"/>
<ItemData ItemOID="IT.QS.QSEVLINT" Value="-P1W"/>
</ItemGroupData>
<ItemGroupData ItemGroupOID="IG.QSCS" data:ItemGroupDataSeq="175">
<ItemData ItemOID="IT.STUDYID" Value="CDISC01"/>
<ItemData ItemOID="IT.QS.DOMAIN" Value="QS"/>
<ItemData ItemOID="IT.USUBJID" Value="CDISC01.200001"/>
<ItemData ItemOID="IT.QS.QSSEQ" Value="23"/>
<ItemData ItemOID="IT.QS.QSTESTCD" Value="CSDD06"/>
<ItemData ItemOID="IT.QS.QSTEST" Value="Retardation"/>
<ItemData ItemOID="IT.QS.QSCAT" Value="CORNELL SCALE FOR DEPRESSION IN DEMENTIA (CSDD)"/>
<ItemData ItemOID="IT.QS.QSORRES" Value="Absent"/>
<ItemData ItemOID="IT.QS.QSSTRESC" Value="0"/>
<ItemData ItemOID="IT.QS.QSSTRESN" Value="0"/>
<ItemData ItemOID="IT.QS.VISITNUM" Value="1"/>
<ItemData ItemOID="IT.QS.VISIT" Value="SCREEN"/>
<ItemData ItemOID="IT.QS.VISITDY" Value="-13"/>
<ItemData ItemOID="IT.QS.QSDTC" Value="2003-09-09"/>
<ItemData ItemOID="IT.QS.QSDY" Value="-21"/>
<ItemData ItemOID="IT.QS.QSEVLINT" Value="-P1W"/>
</ItemGroupData>
<ItemGroupData ItemGroupOID="IG.QSCS" data:ItemGroupDataSeq="176">
<ItemData ItemOID="IT.STUDYID" Value="CDISC01"/>
<ItemData ItemOID="IT.QS.DOMAIN" Value="QS"/>
<ItemData ItemOID="IT.USUBJID" Value="CDISC01.200001"/>
<ItemData ItemOID="IT.QS.QSSEQ" Value="24"/>
<ItemData ItemOID="IT.QS.QSTESTCD" Value="CSDD06"/>
<ItemData ItemOID="IT.QS.QSTEST" Value="Retardation"/>
<ItemData ItemOID="IT.QS.QSCAT" Value="CORNELL SCALE FOR DEPRESSION IN DEMENTIA (CSDD)"/>
<ItemData ItemOID="IT.QS.QSORRES" Value="Absent"/>
<ItemData ItemOID="IT.QS.QSSTRESC" Value="0"/>
<ItemData ItemOID="IT.QS.QSSTRESN" Value="0"/>
<ItemData ItemOID="IT.QS.QSBLFL" Value="Y"/>
<ItemData ItemOID="IT.QS.VISITNUM" Value="2"/>
<ItemData ItemOID="IT.QS.VISIT" Value="BASELINE"/>
<ItemData ItemOID="IT.QS.VISITDY" Value="1"/>
<ItemData ItemOID="IT.QS.QSDTC" Value="2003-09-30"/>
<ItemData ItemOID="IT.QS.QSDY" Value="1"/>
<ItemData ItemOID="IT.QS.QSEVLINT" Value="-P1W"/>
</ItemGroupData>
<ItemGroupData ItemGroupOID="IG.QSCS" data:ItemGroupDataSeq="177">
<ItemData ItemOID="IT.STUDYID" Value="CDISC01"/>
<ItemData ItemOID="IT.QS.DOMAIN" Value="QS"/>
<ItemData ItemOID="IT.USUBJID" Value="CDISC01.200001"/>
<ItemData ItemOID="IT.QS.QSSEQ" Value="25"/>
<ItemData ItemOID="IT.QS.QSTESTCD" Value="CSDD06"/>
<ItemData ItemOID="IT.QS.QSTEST" Value="Retardation"/>
<ItemData ItemOID="IT.QS.QSCAT" Value="CORNELL SCALE FOR DEPRESSION IN DEMENTIA (CSDD)"/>
<ItemData ItemOID="IT.QS.QSORRES" Value="Mild or Intermittent"/>
<ItemData ItemOID="IT.QS.QSSTRESC" Value="1"/>
<ItemData ItemOID="IT.QS.QSSTRESN" Value="1"/>
<ItemData ItemOID="IT.QS.VISITNUM" Value="3"/>
<ItemData ItemOID="IT.QS.VISIT" Value="WEEK 2"/>
<ItemData ItemOID="IT.QS.VISITDY" Value="15"/>
<ItemData ItemOID="IT.QS.QSDTC" Value="2003-10-14"/>
<ItemData ItemOID="IT.QS.QSDY" Value="15"/>
<ItemData ItemOID="IT.QS.QSEVLINT" Value="-P1W"/>
</ItemGroupData>
<ItemGroupData ItemGroupOID="IG.QSCS" data:ItemGroupDataSeq="178">
<ItemData ItemOID="IT.STUDYID" Value="CDISC01"/>
<ItemData ItemOID="IT.QS.DOMAIN" Value="QS"/>
<ItemData ItemOID="IT.USUBJID" Value="CDISC01.200001"/>
<ItemData ItemOID="IT.QS.QSSEQ" Value="26"/>
<ItemData ItemOID="IT.QS.QSTESTCD" Value="CSDD06"/>
<ItemData ItemOID="IT.QS.QSTEST" Value="Retardation"/>
<ItemData ItemOID="IT.QS.QSCAT" Value="CORNELL SCALE FOR DEPRESSION IN DEMENTIA (CSDD)"/>
<ItemData ItemOID="IT.QS.QSORRES" Value="Mild or Intermittent"/>
<ItemData ItemOID="IT.QS.QSSTRESC" Value="1"/>
<ItemData ItemOID="IT.QS.QSSTRESN" Value="1"/>
<ItemData ItemOID="IT.QS.VISITNUM" Value="10"/>
<ItemData ItemOID="IT.QS.VISIT" Value="WEEK 24"/>
<ItemData ItemOID="IT.QS.VISITDY" Value="169"/>
<ItemData ItemOID="IT.QS.QSDTC" Value="2004-02-02"/>
<ItemData ItemOID="IT.QS.QSDY" Value="126"/>
<ItemData ItemOID="IT.QS.QSEVLINT" Value="-P1W"/>
</ItemGroupData>
<ItemGroupData ItemGroupOID="IG.QSCS" data:ItemGroupDataSeq="179">
<ItemData ItemOID="IT.STUDYID" Value="CDISC01"/>
<ItemData ItemOID="IT.QS.DOMAIN" Value="QS"/>
<ItemData ItemOID="IT.USUBJID" Value="CDISC01.200001"/>
<ItemData ItemOID="IT.QS.QSSEQ" Value="27"/>
<ItemData ItemOID="IT.QS.QSTESTCD" Value="CSDD07"/>
<ItemData ItemOID="IT.QS.QSTEST" Value="Multiple Physical Complaints"/>
<ItemData ItemOID="IT.QS.QSCAT" Value="CORNELL SCALE FOR DEPRESSION IN DEMENTIA (CSDD)"/>
<ItemData ItemOID="IT.QS.QSORRES" Value="Absent"/>
<ItemData ItemOID="IT.QS.QSSTRESC" Value="0"/>
<ItemData ItemOID="IT.QS.QSSTRESN" Value="0"/>
<ItemData ItemOID="IT.QS.VISITNUM" Value="1"/>
<ItemData ItemOID="IT.QS.VISIT" Value="SCREEN"/>
<ItemData ItemOID="IT.QS.VISITDY" Value="-13"/>
<ItemData ItemOID="IT.QS.QSDTC" Value="2003-09-09"/>
<ItemData ItemOID="IT.QS.QSDY" Value="-21"/>
<ItemData ItemOID="IT.QS.QSEVLINT" Value="-P1W"/>
</ItemGroupData>
<ItemGroupData ItemGroupOID="IG.QSCS" data:ItemGroupDataSeq="180">
<ItemData ItemOID="IT.STUDYID" Value="CDISC01"/>
<ItemData ItemOID="IT.QS.DOMAIN" Value="QS"/>
<ItemData ItemOID="IT.USUBJID" Value="CDISC01.200001"/>
<ItemData ItemOID="IT.QS.QSSEQ" Value="28"/>
<ItemData ItemOID="IT.QS.QSTESTCD" Value="CSDD07"/>
<ItemData ItemOID="IT.QS.QSTEST" Value="Multiple Physical Complaints"/>
<ItemData ItemOID="IT.QS.QSCAT" Value="CORNELL SCALE FOR DEPRESSION IN DEMENTIA (CSDD)"/>
<ItemData ItemOID="IT.QS.QSORRES" Value="Mild or Intermittent"/>
<ItemData ItemOID="IT.QS.QSSTRESC" Value="1"/>
<ItemData ItemOID="IT.QS.QSSTRESN" Value="1"/>
<ItemData ItemOID="IT.QS.QSBLFL" Value="Y"/>
<ItemData ItemOID="IT.QS.VISITNUM" Value="2"/>
<ItemData ItemOID="IT.QS.VISIT" Value="BASELINE"/>
<ItemData ItemOID="IT.QS.VISITDY" Value="1"/>
<ItemData ItemOID="IT.QS.QSDTC" Value="2003-09-30"/>
<ItemData ItemOID="IT.QS.QSDY" Value="1"/>
<ItemData ItemOID="IT.QS.QSEVLINT" Value="-P1W"/>
</ItemGroupData>
<ItemGroupData ItemGroupOID="IG.QSCS" data:ItemGroupDataSeq="181">
<ItemData ItemOID="IT.STUDYID" Value="CDISC01"/>
<ItemData ItemOID="IT.QS.DOMAIN" Value="QS"/>
<ItemData ItemOID="IT.USUBJID" Value="CDISC01.200001"/>
<ItemData ItemOID="IT.QS.QSSEQ" Value="29"/>
<ItemData ItemOID="IT.QS.QSTESTCD" Value="CSDD07"/>
<ItemData ItemOID="IT.QS.QSTEST" Value="Multiple Physical Complaints"/>
<ItemData ItemOID="IT.QS.QSCAT" Value="CORNELL SCALE FOR DEPRESSION IN DEMENTIA (CSDD)"/>
<ItemData ItemOID="IT.QS.QSORRES" Value="Absent"/>
<ItemData ItemOID="IT.QS.QSSTRESC" Value="0"/>
<ItemData ItemOID="IT.QS.QSSTRESN" Value="0"/>
<ItemData ItemOID="IT.QS.VISITNUM" Value="3"/>
<ItemData ItemOID="IT.QS.VISIT" Value="WEEK 2"/>
<ItemData ItemOID="IT.QS.VISITDY" Value="15"/>
<ItemData ItemOID="IT.QS.QSDTC" Value="2003-10-14"/>
<ItemData ItemOID="IT.QS.QSDY" Value="15"/>
<ItemData ItemOID="IT.QS.QSEVLINT" Value="-P1W"/>
</ItemGroupData>
<ItemGroupData ItemGroupOID="IG.QSCS" data:ItemGroupDataSeq="182">
<ItemData ItemOID="IT.STUDYID" Value="CDISC01"/>
<ItemData ItemOID="IT.QS.DOMAIN" Value="QS"/>
<ItemData ItemOID="IT.USUBJID" Value="CDISC01.200001"/>
<ItemData ItemOID="IT.QS.QSSEQ" Value="30"/>
<ItemData ItemOID="IT.QS.QSTESTCD" Value="CSDD07"/>
<ItemData ItemOID="IT.QS.QSTEST" Value="Multiple Physical Complaints"/>
<ItemData ItemOID="IT.QS.QSCAT" Value="CORNELL SCALE FOR DEPRESSION IN DEMENTIA (CSDD)"/>
<ItemData ItemOID="IT.QS.QSORRES" Value="Absent"/>
<ItemData ItemOID="IT.QS.QSSTRESC" Value="0"/>
<ItemData ItemOID="IT.QS.QSSTRESN" Value="0"/>
<ItemData ItemOID="IT.QS.VISITNUM" Value="10"/>
<ItemData ItemOID="IT.QS.VISIT" Value="WEEK 24"/>
<ItemData ItemOID="IT.QS.VISITDY" Value="169"/>
<ItemData ItemOID="IT.QS.QSDTC" Value="2004-02-02"/>
<ItemData ItemOID="IT.QS.QSDY" Value="126"/>
<ItemData ItemOID="IT.QS.QSEVLINT" Value="-P1W"/>
</ItemGroupData>
<ItemGroupData ItemGroupOID="IG.QSCS" data:ItemGroupDataSeq="183">
<ItemData ItemOID="IT.STUDYID" Value="CDISC01"/>
<ItemData ItemOID="IT.QS.DOMAIN" Value="QS"/>
<ItemData ItemOID="IT.USUBJID" Value="CDISC01.200001"/>
<ItemData ItemOID="IT.QS.QSSEQ" Value="31"/>
<ItemData ItemOID="IT.QS.QSTESTCD" Value="CSDD08"/>
<ItemData ItemOID="IT.QS.QSTEST" Value="Loss of Interest"/>
<ItemData ItemOID="IT.QS.QSCAT" Value="CORNELL SCALE FOR DEPRESSION IN DEMENTIA (CSDD)"/>
<ItemData ItemOID="IT.QS.QSORRES" Value="Absent"/>
<ItemData ItemOID="IT.QS.QSSTRESC" Value="0"/>
<ItemData ItemOID="IT.QS.QSSTRESN" Value="0"/>
<ItemData ItemOID="IT.QS.VISITNUM" Value="1"/>
<ItemData ItemOID="IT.QS.VISIT" Value="SCREEN"/>
<ItemData ItemOID="IT.QS.VISITDY" Value="-13"/>
<ItemData ItemOID="IT.QS.QSDTC" Value="2003-09-09"/>
<ItemData ItemOID="IT.QS.QSDY" Value="-21"/>
<ItemData ItemOID="IT.QS.QSEVLINT" Value="-P1W"/>
</ItemGroupData>
<ItemGroupData ItemGroupOID="IG.QSCS" data:ItemGroupDataSeq="184">
<ItemData ItemOID="IT.STUDYID" Value="CDISC01"/>
<ItemData ItemOID="IT.QS.DOMAIN" Value="QS"/>
<ItemData ItemOID="IT.USUBJID" Value="CDISC01.200001"/>
<ItemData ItemOID="IT.QS.QSSEQ" Value="32"/>
<ItemData ItemOID="IT.QS.QSTESTCD" Value="CSDD08"/>
<ItemData ItemOID="IT.QS.QSTEST" Value="Loss of Interest"/>
<ItemData ItemOID="IT.QS.QSCAT" Value="CORNELL SCALE FOR DEPRESSION IN DEMENTIA (CSDD)"/>
<ItemData ItemOID="IT.QS.QSORRES" Value="Severe"/>
<ItemData ItemOID="IT.QS.QSSTRESC" Value="2"/>
<ItemData ItemOID="IT.QS.QSSTRESN" Value="2"/>
<ItemData ItemOID="IT.QS.QSBLFL" Value="Y"/>
<ItemData ItemOID="IT.QS.VISITNUM" Value="2"/>
<ItemData ItemOID="IT.QS.VISIT" Value="BASELINE"/>
<ItemData ItemOID="IT.QS.VISITDY" Value="1"/>
<ItemData ItemOID="IT.QS.QSDTC" Value="2003-09-30"/>
<ItemData ItemOID="IT.QS.QSDY" Value="1"/>
<ItemData ItemOID="IT.QS.QSEVLINT" Value="-P1W"/>
</ItemGroupData>
<ItemGroupData ItemGroupOID="IG.QSCS" data:ItemGroupDataSeq="185">
<ItemData ItemOID="IT.STUDYID" Value="CDISC01"/>
<ItemData ItemOID="IT.QS.DOMAIN" Value="QS"/>
<ItemData ItemOID="IT.USUBJID" Value="CDISC01.200001"/>
<ItemData ItemOID="IT.QS.QSSEQ" Value="33"/>
<ItemData ItemOID="IT.QS.QSTESTCD" Value="CSDD08"/>
<ItemData ItemOID="IT.QS.QSTEST" Value="Loss of Interest"/>
<ItemData ItemOID="IT.QS.QSCAT" Value="CORNELL SCALE FOR DEPRESSION IN DEMENTIA (CSDD)"/>
<ItemData ItemOID="IT.QS.QSORRES" Value="Severe"/>
<ItemData ItemOID="IT.QS.QSSTRESC" Value="2"/>
<ItemData ItemOID="IT.QS.QSSTRESN" Value="2"/>
<ItemData ItemOID="IT.QS.VISITNUM" Value="3"/>
<ItemData ItemOID="IT.QS.VISIT" Value="WEEK 2"/>
<ItemData ItemOID="IT.QS.VISITDY" Value="15"/>
<ItemData ItemOID="IT.QS.QSDTC" Value="2003-10-14"/>
<ItemData ItemOID="IT.QS.QSDY" Value="15"/>
<ItemData ItemOID="IT.QS.QSEVLINT" Value="-P1W"/>
</ItemGroupData>
<ItemGroupData ItemGroupOID="IG.QSCS" data:ItemGroupDataSeq="186">
<ItemData ItemOID="IT.STUDYID" Value="CDISC01"/>
<ItemData ItemOID="IT.QS.DOMAIN" Value="QS"/>
<ItemData ItemOID="IT.USUBJID" Value="CDISC01.200001"/>
<ItemData ItemOID="IT.QS.QSSEQ" Value="34"/>
<ItemData ItemOID="IT.QS.QSTESTCD" Value="CSDD08"/>
<ItemData ItemOID="IT.QS.QSTEST" Value="Loss of Interest"/>
<ItemData ItemOID="IT.QS.QSCAT" Value="CORNELL SCALE FOR DEPRESSION IN DEMENTIA (CSDD)"/>
<ItemData ItemOID="IT.QS.QSORRES" Value="Severe"/>
<ItemData ItemOID="IT.QS.QSSTRESC" Value="2"/>
<ItemData ItemOID="IT.QS.QSSTRESN" Value="2"/>
<ItemData ItemOID="IT.QS.VISITNUM" Value="10"/>
<ItemData ItemOID="IT.QS.VISIT" Value="WEEK 24"/>
<ItemData ItemOID="IT.QS.VISITDY" Value="169"/>
<ItemData ItemOID="IT.QS.QSDTC" Value="2004-02-02"/>
<ItemData ItemOID="IT.QS.QSDY" Value="126"/>
<ItemData ItemOID="IT.QS.QSEVLINT" Value="-P1W"/>
</ItemGroupData>
<ItemGroupData ItemGroupOID="IG.QSCS" data:ItemGroupDataSeq="187">
<ItemData ItemOID="IT.STUDYID" Value="CDISC01"/>
<ItemData ItemOID="IT.QS.DOMAIN" Value="QS"/>
<ItemData ItemOID="IT.USUBJID" Value="CDISC01.200001"/>
<ItemData ItemOID="IT.QS.QSSEQ" Value="35"/>
<ItemData ItemOID="IT.QS.QSTESTCD" Value="CSDD09"/>
<ItemData ItemOID="IT.QS.QSTEST" Value="Appetite Loss"/>
<ItemData ItemOID="IT.QS.QSCAT" Value="CORNELL SCALE FOR DEPRESSION IN DEMENTIA (CSDD)"/>
<ItemData ItemOID="IT.QS.QSORRES" Value="Severe"/>
<ItemData ItemOID="IT.QS.QSSTRESC" Value="2"/>
<ItemData ItemOID="IT.QS.QSSTRESN" Value="2"/>
<ItemData ItemOID="IT.QS.VISITNUM" Value="1"/>
<ItemData ItemOID="IT.QS.VISIT" Value="SCREEN"/>
<ItemData ItemOID="IT.QS.VISITDY" Value="-13"/>
<ItemData ItemOID="IT.QS.QSDTC" Value="2003-09-09"/>
<ItemData ItemOID="IT.QS.QSDY" Value="-21"/>
<ItemData ItemOID="IT.QS.QSEVLINT" Value="-P1W"/>
</ItemGroupData>
<ItemGroupData ItemGroupOID="IG.QSCS" data:ItemGroupDataSeq="188">
<ItemData ItemOID="IT.STUDYID" Value="CDISC01"/>
<ItemData ItemOID="IT.QS.DOMAIN" Value="QS"/>
<ItemData ItemOID="IT.USUBJID" Value="CDISC01.200001"/>
<ItemData ItemOID="IT.QS.QSSEQ" Value="36"/>
<ItemData ItemOID="IT.QS.QSTESTCD" Value="CSDD09"/>
<ItemData ItemOID="IT.QS.QSTEST" Value="Appetite Loss"/>
<ItemData ItemOID="IT.QS.QSCAT" Value="CORNELL SCALE FOR DEPRESSION IN DEMENTIA (CSDD)"/>
<ItemData ItemOID="IT.QS.QSORRES" Value="Severe"/>
<ItemData ItemOID="IT.QS.QSSTRESC" Value="2"/>
<ItemData ItemOID="IT.QS.QSSTRESN" Value="2"/>
<ItemData ItemOID="IT.QS.QSBLFL" Value="Y"/>
<ItemData ItemOID="IT.QS.VISITNUM" Value="2"/>
<ItemData ItemOID="IT.QS.VISIT" Value="BASELINE"/>
<ItemData ItemOID="IT.QS.VISITDY" Value="1"/>
<ItemData ItemOID="IT.QS.QSDTC" Value="2003-09-30"/>
<ItemData ItemOID="IT.QS.QSDY" Value="1"/>
<ItemData ItemOID="IT.QS.QSEVLINT" Value="-P1W"/>
</ItemGroupData>
<ItemGroupData ItemGroupOID="IG.QSCS" data:ItemGroupDataSeq="189">
<ItemData ItemOID="IT.STUDYID" Value="CDISC01"/>
<ItemData ItemOID="IT.QS.DOMAIN" Value="QS"/>
<ItemData ItemOID="IT.USUBJID" Value="CDISC01.200001"/>
<ItemData ItemOID="IT.QS.QSSEQ" Value="37"/>
<ItemData ItemOID="IT.QS.QSTESTCD" Value="CSDD09"/>
<ItemData ItemOID="IT.QS.QSTEST" Value="Appetite Loss"/>
<ItemData ItemOID="IT.QS.QSCAT" Value="CORNELL SCALE FOR DEPRESSION IN DEMENTIA (CSDD)"/>
<ItemData ItemOID="IT.QS.QSORRES" Value="Mild or Intermittent"/>
<ItemData ItemOID="IT.QS.QSSTRESC" Value="1"/>
<ItemData ItemOID="IT.QS.QSSTRESN" Value="1"/>
<ItemData ItemOID="IT.QS.VISITNUM" Value="3"/>
<ItemData ItemOID="IT.QS.VISIT" Value="WEEK 2"/>
<ItemData ItemOID="IT.QS.VISITDY" Value="15"/>
<ItemData ItemOID="IT.QS.QSDTC" Value="2003-10-14"/>
<ItemData ItemOID="IT.QS.QSDY" Value="15"/>
<ItemData ItemOID="IT.QS.QSEVLINT" Value="-P1W"/>
</ItemGroupData>
<ItemGroupData ItemGroupOID="IG.QSCS" data:ItemGroupDataSeq="190">
<ItemData ItemOID="IT.STUDYID" Value="CDISC01"/>
<ItemData ItemOID="IT.QS.DOMAIN" Value="QS"/>
<ItemData ItemOID="IT.USUBJID" Value="CDISC01.200001"/>
<ItemData ItemOID="IT.QS.QSSEQ" Value="38"/>
<ItemData ItemOID="IT.QS.QSTESTCD" Value="CSDD09"/>
<ItemData ItemOID="IT.QS.QSTEST" Value="Appetite Loss"/>
<ItemData ItemOID="IT.QS.QSCAT" Value="CORNELL SCALE FOR DEPRESSION IN DEMENTIA (CSDD)"/>
<ItemData ItemOID="IT.QS.QSORRES" Value="Severe"/>
<ItemData ItemOID="IT.QS.QSSTRESC" Value="2"/>
<ItemData ItemOID="IT.QS.QSSTRESN" Value="2"/>
<ItemData ItemOID="IT.QS.VISITNUM" Value="10"/>
<ItemData ItemOID="IT.QS.VISIT" Value="WEEK 24"/>
<ItemData ItemOID="IT.QS.VISITDY" Value="169"/>
<ItemData ItemOID="IT.QS.QSDTC" Value="2004-02-02"/>
<ItemData ItemOID="IT.QS.QSDY" Value="126"/>
<ItemData ItemOID="IT.QS.QSEVLINT" Value="-P1W"/>
</ItemGroupData>
<ItemGroupData ItemGroupOID="IG.QSCS" data:ItemGroupDataSeq="191">
<ItemData ItemOID="IT.STUDYID" Value="CDISC01"/>
<ItemData ItemOID="IT.QS.DOMAIN" Value="QS"/>
<ItemData ItemOID="IT.USUBJID" Value="CDISC01.200001"/>
<ItemData ItemOID="IT.QS.QSSEQ" Value="39"/>
<ItemData ItemOID="IT.QS.QSTESTCD" Value="CSDD10"/>
<ItemData ItemOID="IT.QS.QSTEST" Value="Weight Loss"/>
<ItemData ItemOID="IT.QS.QSCAT" Value="CORNELL SCALE FOR DEPRESSION IN DEMENTIA (CSDD)"/>
<ItemData ItemOID="IT.QS.QSORRES" Value="Severe"/>
<ItemData ItemOID="IT.QS.QSSTRESC" Value="2"/>
<ItemData ItemOID="IT.QS.QSSTRESN" Value="2"/>
<ItemData ItemOID="IT.QS.VISITNUM" Value="1"/>
<ItemData ItemOID="IT.QS.VISIT" Value="SCREEN"/>
<ItemData ItemOID="IT.QS.VISITDY" Value="-13"/>
<ItemData ItemOID="IT.QS.QSDTC" Value="2003-09-09"/>
<ItemData ItemOID="IT.QS.QSDY" Value="-21"/>
<ItemData ItemOID="IT.QS.QSEVLINT" Value="-P1W"/>
</ItemGroupData>
<ItemGroupData ItemGroupOID="IG.QSCS" data:ItemGroupDataSeq="192">
<ItemData ItemOID="IT.STUDYID" Value="CDISC01"/>
<ItemData ItemOID="IT.QS.DOMAIN" Value="QS"/>
<ItemData ItemOID="IT.USUBJID" Value="CDISC01.200001"/>
<ItemData ItemOID="IT.QS.QSSEQ" Value="40"/>
<ItemData ItemOID="IT.QS.QSTESTCD" Value="CSDD10"/>
<ItemData ItemOID="IT.QS.QSTEST" Value="Weight Loss"/>
<ItemData ItemOID="IT.QS.QSCAT" Value="CORNELL SCALE FOR DEPRESSION IN DEMENTIA (CSDD)"/>
<ItemData ItemOID="IT.QS.QSORRES" Value="Severe"/>
<ItemData ItemOID="IT.QS.QSSTRESC" Value="2"/>
<ItemData ItemOID="IT.QS.QSSTRESN" Value="2"/>
<ItemData ItemOID="IT.QS.QSBLFL" Value="Y"/>
<ItemData ItemOID="IT.QS.VISITNUM" Value="2"/>
<ItemData ItemOID="IT.QS.VISIT" Value="BASELINE"/>
<ItemData ItemOID="IT.QS.VISITDY" Value="1"/>
<ItemData ItemOID="IT.QS.QSDTC" Value="2003-09-30"/>
<ItemData ItemOID="IT.QS.QSDY" Value="1"/>
<ItemData ItemOID="IT.QS.QSEVLINT" Value="-P1W"/>
</ItemGroupData>
<ItemGroupData ItemGroupOID="IG.QSCS" data:ItemGroupDataSeq="193">
<ItemData ItemOID="IT.STUDYID" Value="CDISC01"/>
<ItemData ItemOID="IT.QS.DOMAIN" Value="QS"/>
<ItemData ItemOID="IT.USUBJID" Value="CDISC01.200001"/>
<ItemData ItemOID="IT.QS.QSSEQ" Value="41"/>
<ItemData ItemOID="IT.QS.QSTESTCD" Value="CSDD10"/>
<ItemData ItemOID="IT.QS.QSTEST" Value="Weight Loss"/>
<ItemData ItemOID="IT.QS.QSCAT" Value="CORNELL SCALE FOR DEPRESSION IN DEMENTIA (CSDD)"/>
<ItemData ItemOID="IT.QS.QSORRES" Value="Severe"/>
<ItemData ItemOID="IT.QS.QSSTRESC" Value="2"/>
<ItemData ItemOID="IT.QS.QSSTRESN" Value="2"/>
<ItemData ItemOID="IT.QS.VISITNUM" Value="3"/>
<ItemData ItemOID="IT.QS.VISIT" Value="WEEK 2"/>
<ItemData ItemOID="IT.QS.VISITDY" Value="15"/>
<ItemData ItemOID="IT.QS.QSDTC" Value="2003-10-14"/>
<ItemData ItemOID="IT.QS.QSDY" Value="15"/>
<ItemData ItemOID="IT.QS.QSEVLINT" Value="-P1W"/>
</ItemGroupData>
<ItemGroupData ItemGroupOID="IG.QSCS" data:ItemGroupDataSeq="194">
<ItemData ItemOID="IT.STUDYID" Value="CDISC01"/>
<ItemData ItemOID="IT.QS.DOMAIN" Value="QS"/>
<ItemData ItemOID="IT.USUBJID" Value="CDISC01.200001"/>
<ItemData ItemOID="IT.QS.QSSEQ" Value="42"/>
<ItemData ItemOID="IT.QS.QSTESTCD" Value="CSDD10"/>
<ItemData ItemOID="IT.QS.QSTEST" Value="Weight Loss"/>
<ItemData ItemOID="IT.QS.QSCAT" Value="CORNELL SCALE FOR DEPRESSION IN DEMENTIA (CSDD)"/>
<ItemData ItemOID="IT.QS.QSORRES" Value="Mild or Intermittent"/>
<ItemData ItemOID="IT.QS.QSSTRESC" Value="1"/>
<ItemData ItemOID="IT.QS.QSSTRESN" Value="1"/>
<ItemData ItemOID="IT.QS.VISITNUM" Value="10"/>
<ItemData ItemOID="IT.QS.VISIT" Value="WEEK 24"/>
<ItemData ItemOID="IT.QS.VISITDY" Value="169"/>
<ItemData ItemOID="IT.QS.QSDTC" Value="2004-02-02"/>
<ItemData ItemOID="IT.QS.QSDY" Value="126"/>
<ItemData ItemOID="IT.QS.QSEVLINT" Value="-P1W"/>
</ItemGroupData>
<ItemGroupData ItemGroupOID="IG.QSCS" data:ItemGroupDataSeq="195">
<ItemData ItemOID="IT.STUDYID" Value="CDISC01"/>
<ItemData ItemOID="IT.QS.DOMAIN" Value="QS"/>
<ItemData ItemOID="IT.USUBJID" Value="CDISC01.200001"/>
<ItemData ItemOID="IT.QS.QSSEQ" Value="43"/>
<ItemData ItemOID="IT.QS.QSTESTCD" Value="CSDD11"/>
<ItemData ItemOID="IT.QS.QSTEST" Value="Lack of Energy"/>
<ItemData ItemOID="IT.QS.QSCAT" Value="CORNELL SCALE FOR DEPRESSION IN DEMENTIA (CSDD)"/>
<ItemData ItemOID="IT.QS.QSORRES" Value="Absent"/>
<ItemData ItemOID="IT.QS.QSSTRESC" Value="0"/>
<ItemData ItemOID="IT.QS.QSSTRESN" Value="0"/>
<ItemData ItemOID="IT.QS.VISITNUM" Value="1"/>
<ItemData ItemOID="IT.QS.VISIT" Value="SCREEN"/>
<ItemData ItemOID="IT.QS.VISITDY" Value="-13"/>
<ItemData ItemOID="IT.QS.QSDTC" Value="2003-09-09"/>
<ItemData ItemOID="IT.QS.QSDY" Value="-21"/>
<ItemData ItemOID="IT.QS.QSEVLINT" Value="-P1W"/>
</ItemGroupData>
<ItemGroupData ItemGroupOID="IG.QSCS" data:ItemGroupDataSeq="196">
<ItemData ItemOID="IT.STUDYID" Value="CDISC01"/>
<ItemData ItemOID="IT.QS.DOMAIN" Value="QS"/>
<ItemData ItemOID="IT.USUBJID" Value="CDISC01.200001"/>
<ItemData ItemOID="IT.QS.QSSEQ" Value="44"/>
<ItemData ItemOID="IT.QS.QSTESTCD" Value="CSDD11"/>
<ItemData ItemOID="IT.QS.QSTEST" Value="Lack of Energy"/>
<ItemData ItemOID="IT.QS.QSCAT" Value="CORNELL SCALE FOR DEPRESSION IN DEMENTIA (CSDD)"/>
<ItemData ItemOID="IT.QS.QSORRES" Value="Absent"/>
<ItemData ItemOID="IT.QS.QSSTRESC" Value="0"/>
<ItemData ItemOID="IT.QS.QSSTRESN" Value="0"/>
<ItemData ItemOID="IT.QS.QSBLFL" Value="Y"/>
<ItemData ItemOID="IT.QS.VISITNUM" Value="2"/>
<ItemData ItemOID="IT.QS.VISIT" Value="BASELINE"/>
<ItemData ItemOID="IT.QS.VISITDY" Value="1"/>
<ItemData ItemOID="IT.QS.QSDTC" Value="2003-09-30"/>
<ItemData ItemOID="IT.QS.QSDY" Value="1"/>
<ItemData ItemOID="IT.QS.QSEVLINT" Value="-P1W"/>
</ItemGroupData>
<ItemGroupData ItemGroupOID="IG.QSCS" data:ItemGroupDataSeq="197">
<ItemData ItemOID="IT.STUDYID" Value="CDISC01"/>
<ItemData ItemOID="IT.QS.DOMAIN" Value="QS"/>
<ItemData ItemOID="IT.USUBJID" Value="CDISC01.200001"/>
<ItemData ItemOID="IT.QS.QSSEQ" Value="45"/>
<ItemData ItemOID="IT.QS.QSTESTCD" Value="CSDD11"/>
<ItemData ItemOID="IT.QS.QSTEST" Value="Lack of Energy"/>
<ItemData ItemOID="IT.QS.QSCAT" Value="CORNELL SCALE FOR DEPRESSION IN DEMENTIA (CSDD)"/>
<ItemData ItemOID="IT.QS.QSORRES" Value="Mild or Intermittent"/>
<ItemData ItemOID="IT.QS.QSSTRESC" Value="1"/>
<ItemData ItemOID="IT.QS.QSSTRESN" Value="1"/>
<ItemData ItemOID="IT.QS.VISITNUM" Value="3"/>
<ItemData ItemOID="IT.QS.VISIT" Value="WEEK 2"/>
<ItemData ItemOID="IT.QS.VISITDY" Value="15"/>
<ItemData ItemOID="IT.QS.QSDTC" Value="2003-10-14"/>
<ItemData ItemOID="IT.QS.QSDY" Value="15"/>
<ItemData ItemOID="IT.QS.QSEVLINT" Value="-P1W"/>
</ItemGroupData>
<ItemGroupData ItemGroupOID="IG.QSCS" data:ItemGroupDataSeq="198">
<ItemData ItemOID="IT.STUDYID" Value="CDISC01"/>
<ItemData ItemOID="IT.QS.DOMAIN" Value="QS"/>
<ItemData ItemOID="IT.USUBJID" Value="CDISC01.200001"/>
<ItemData ItemOID="IT.QS.QSSEQ" Value="46"/>
<ItemData ItemOID="IT.QS.QSTESTCD" Value="CSDD11"/>
<ItemData ItemOID="IT.QS.QSTEST" Value="Lack of Energy"/>
<ItemData ItemOID="IT.QS.QSCAT" Value="CORNELL SCALE FOR DEPRESSION IN DEMENTIA (CSDD)"/>
<ItemData ItemOID="IT.QS.QSORRES" Value="Severe"/>
<ItemData ItemOID="IT.QS.QSSTRESC" Value="2"/>
<ItemData ItemOID="IT.QS.QSSTRESN" Value="2"/>
<ItemData ItemOID="IT.QS.VISITNUM" Value="10"/>
<ItemData ItemOID="IT.QS.VISIT" Value="WEEK 24"/>
<ItemData ItemOID="IT.QS.VISITDY" Value="169"/>
<ItemData ItemOID="IT.QS.QSDTC" Value="2004-02-02"/>
<ItemData ItemOID="IT.QS.QSDY" Value="126"/>
<ItemData ItemOID="IT.QS.QSEVLINT" Value="-P1W"/>
</ItemGroupData>
<ItemGroupData ItemGroupOID="IG.QSCS" data:ItemGroupDataSeq="199">
<ItemData ItemOID="IT.STUDYID" Value="CDISC01"/>
<ItemData ItemOID="IT.QS.DOMAIN" Value="QS"/>
<ItemData ItemOID="IT.USUBJID" Value="CDISC01.200001"/>
<ItemData ItemOID="IT.QS.QSSEQ" Value="47"/>
<ItemData ItemOID="IT.QS.QSTESTCD" Value="CSDD12"/>
<ItemData ItemOID="IT.QS.QSTEST" Value="Diurnal Variation of Mood"/>
<ItemData ItemOID="IT.QS.QSCAT" Value="CORNELL SCALE FOR DEPRESSION IN DEMENTIA (CSDD)"/>
<ItemData ItemOID="IT.QS.QSORRES" Value="Mild or Intermittent"/>
<ItemData ItemOID="IT.QS.QSSTRESC" Value="1"/>
<ItemData ItemOID="IT.QS.QSSTRESN" Value="1"/>
<ItemData ItemOID="IT.QS.VISITNUM" Value="1"/>
<ItemData ItemOID="IT.QS.VISIT" Value="SCREEN"/>
<ItemData ItemOID="IT.QS.VISITDY" Value="-13"/>
<ItemData ItemOID="IT.QS.QSDTC" Value="2003-09-09"/>
<ItemData ItemOID="IT.QS.QSDY" Value="-21"/>
<ItemData ItemOID="IT.QS.QSEVLINT" Value="-P1W"/>
</ItemGroupData>
<ItemGroupData ItemGroupOID="IG.QSCS" data:ItemGroupDataSeq="200">
<ItemData ItemOID="IT.STUDYID" Value="CDISC01"/>
<ItemData ItemOID="IT.QS.DOMAIN" Value="QS"/>
<ItemData ItemOID="IT.USUBJID" Value="CDISC01.200001"/>
<ItemData ItemOID="IT.QS.QSSEQ" Value="48"/>
<ItemData ItemOID="IT.QS.QSTESTCD" Value="CSDD12"/>
<ItemData ItemOID="IT.QS.QSTEST" Value="Diurnal Variation of Mood"/>
<ItemData ItemOID="IT.QS.QSCAT" Value="CORNELL SCALE FOR DEPRESSION IN DEMENTIA (CSDD)"/>
<ItemData ItemOID="IT.QS.QSORRES" Value="Absent"/>
<ItemData ItemOID="IT.QS.QSSTRESC" Value="0"/>
<ItemData ItemOID="IT.QS.QSSTRESN" Value="0"/>
<ItemData ItemOID="IT.QS.QSBLFL" Value="Y"/>
<ItemData ItemOID="IT.QS.VISITNUM" Value="2"/>
<ItemData ItemOID="IT.QS.VISIT" Value="BASELINE"/>
<ItemData ItemOID="IT.QS.VISITDY" Value="1"/>
<ItemData ItemOID="IT.QS.QSDTC" Value="2003-09-30"/>
<ItemData ItemOID="IT.QS.QSDY" Value="1"/>
<ItemData ItemOID="IT.QS.QSEVLINT" Value="-P1W"/>
</ItemGroupData>
<ItemGroupData ItemGroupOID="IG.QSCS" data:ItemGroupDataSeq="201">
<ItemData ItemOID="IT.STUDYID" Value="CDISC01"/>
<ItemData ItemOID="IT.QS.DOMAIN" Value="QS"/>
<ItemData ItemOID="IT.USUBJID" Value="CDISC01.200001"/>
<ItemData ItemOID="IT.QS.QSSEQ" Value="49"/>
<ItemData ItemOID="IT.QS.QSTESTCD" Value="CSDD12"/>
<ItemData ItemOID="IT.QS.QSTEST" Value="Diurnal Variation of Mood"/>
<ItemData ItemOID="IT.QS.QSCAT" Value="CORNELL SCALE FOR DEPRESSION IN DEMENTIA (CSDD)"/>
<ItemData ItemOID="IT.QS.QSORRES" Value="Absent"/>
<ItemData ItemOID="IT.QS.QSSTRESC" Value="0"/>
<ItemData ItemOID="IT.QS.QSSTRESN" Value="0"/>
<ItemData ItemOID="IT.QS.VISITNUM" Value="3"/>
<ItemData ItemOID="IT.QS.VISIT" Value="WEEK 2"/>
<ItemData ItemOID="IT.QS.VISITDY" Value="15"/>
<ItemData ItemOID="IT.QS.QSDTC" Value="2003-10-14"/>
<ItemData ItemOID="IT.QS.QSDY" Value="15"/>
<ItemData ItemOID="IT.QS.QSEVLINT" Value="-P1W"/>
</ItemGroupData>
<ItemGroupData ItemGroupOID="IG.QSCS" data:ItemGroupDataSeq="202">
<ItemData ItemOID="IT.STUDYID" Value="CDISC01"/>
<ItemData ItemOID="IT.QS.DOMAIN" Value="QS"/>
<ItemData ItemOID="IT.USUBJID" Value="CDISC01.200001"/>
<ItemData ItemOID="IT.QS.QSSEQ" Value="50"/>
<ItemData ItemOID="IT.QS.QSTESTCD" Value="CSDD12"/>
<ItemData ItemOID="IT.QS.QSTEST" Value="Diurnal Variation of Mood"/>
<ItemData ItemOID="IT.QS.QSCAT" Value="CORNELL SCALE FOR DEPRESSION IN DEMENTIA (CSDD)"/>
<ItemData ItemOID="IT.QS.QSORRES" Value="Absent"/>
<ItemData ItemOID="IT.QS.QSSTRESC" Value="0"/>
<ItemData ItemOID="IT.QS.QSSTRESN" Value="0"/>
<ItemData ItemOID="IT.QS.VISITNUM" Value="10"/>
<ItemData ItemOID="IT.QS.VISIT" Value="WEEK 24"/>
<ItemData ItemOID="IT.QS.VISITDY" Value="169"/>
<ItemData ItemOID="IT.QS.QSDTC" Value="2004-02-02"/>
<ItemData ItemOID="IT.QS.QSDY" Value="126"/>
<ItemData ItemOID="IT.QS.QSEVLINT" Value="-P1W"/>
</ItemGroupData>
<ItemGroupData ItemGroupOID="IG.QSCS" data:ItemGroupDataSeq="203">
<ItemData ItemOID="IT.STUDYID" Value="CDISC01"/>
<ItemData ItemOID="IT.QS.DOMAIN" Value="QS"/>
<ItemData ItemOID="IT.USUBJID" Value="CDISC01.200001"/>
<ItemData ItemOID="IT.QS.QSSEQ" Value="51"/>
<ItemData ItemOID="IT.QS.QSTESTCD" Value="CSDD13"/>
<ItemData ItemOID="IT.QS.QSTEST" Value="Difficulty Falling Asleep"/>
<ItemData ItemOID="IT.QS.QSCAT" Value="CORNELL SCALE FOR DEPRESSION IN DEMENTIA (CSDD)"/>
<ItemData ItemOID="IT.QS.QSORRES" Value="Severe"/>
<ItemData ItemOID="IT.QS.QSSTRESC" Value="2"/>
<ItemData ItemOID="IT.QS.QSSTRESN" Value="2"/>
<ItemData ItemOID="IT.QS.VISITNUM" Value="1"/>
<ItemData ItemOID="IT.QS.VISIT" Value="SCREEN"/>
<ItemData ItemOID="IT.QS.VISITDY" Value="-13"/>
<ItemData ItemOID="IT.QS.QSDTC" Value="2003-09-09"/>
<ItemData ItemOID="IT.QS.QSDY" Value="-21"/>
<ItemData ItemOID="IT.QS.QSEVLINT" Value="-P1W"/>
</ItemGroupData>
<ItemGroupData ItemGroupOID="IG.QSCS" data:ItemGroupDataSeq="204">
<ItemData ItemOID="IT.STUDYID" Value="CDISC01"/>
<ItemData ItemOID="IT.QS.DOMAIN" Value="QS"/>
<ItemData ItemOID="IT.USUBJID" Value="CDISC01.200001"/>
<ItemData ItemOID="IT.QS.QSSEQ" Value="52"/>
<ItemData ItemOID="IT.QS.QSTESTCD" Value="CSDD13"/>
<ItemData ItemOID="IT.QS.QSTEST" Value="Difficulty Falling Asleep"/>
<ItemData ItemOID="IT.QS.QSCAT" Value="CORNELL SCALE FOR DEPRESSION IN DEMENTIA (CSDD)"/>
<ItemData ItemOID="IT.QS.QSORRES" Value="Absent"/>
<ItemData ItemOID="IT.QS.QSSTRESC" Value="0"/>
<ItemData ItemOID="IT.QS.QSSTRESN" Value="0"/>
<ItemData ItemOID="IT.QS.QSBLFL" Value="Y"/>
<ItemData ItemOID="IT.QS.VISITNUM" Value="2"/>
<ItemData ItemOID="IT.QS.VISIT" Value="BASELINE"/>
<ItemData ItemOID="IT.QS.VISITDY" Value="1"/>
<ItemData ItemOID="IT.QS.QSDTC" Value="2003-09-30"/>
<ItemData ItemOID="IT.QS.QSDY" Value="1"/>
<ItemData ItemOID="IT.QS.QSEVLINT" Value="-P1W"/>
</ItemGroupData>
<ItemGroupData ItemGroupOID="IG.QSCS" data:ItemGroupDataSeq="205">
<ItemData ItemOID="IT.STUDYID" Value="CDISC01"/>
<ItemData ItemOID="IT.QS.DOMAIN" Value="QS"/>
<ItemData ItemOID="IT.USUBJID" Value="CDISC01.200001"/>
<ItemData ItemOID="IT.QS.QSSEQ" Value="53"/>
<ItemData ItemOID="IT.QS.QSTESTCD" Value="CSDD13"/>
<ItemData ItemOID="IT.QS.QSTEST" Value="Difficulty Falling Asleep"/>
<ItemData ItemOID="IT.QS.QSCAT" Value="CORNELL SCALE FOR DEPRESSION IN DEMENTIA (CSDD)"/>
<ItemData ItemOID="IT.QS.QSORRES" Value="Absent"/>
<ItemData ItemOID="IT.QS.QSSTRESC" Value="0"/>
<ItemData ItemOID="IT.QS.QSSTRESN" Value="0"/>
<ItemData ItemOID="IT.QS.VISITNUM" Value="3"/>
<ItemData ItemOID="IT.QS.VISIT" Value="WEEK 2"/>
<ItemData ItemOID="IT.QS.VISITDY" Value="15"/>
<ItemData ItemOID="IT.QS.QSDTC" Value="2003-10-14"/>
<ItemData ItemOID="IT.QS.QSDY" Value="15"/>
<ItemData ItemOID="IT.QS.QSEVLINT" Value="-P1W"/>
</ItemGroupData>
<ItemGroupData ItemGroupOID="IG.QSCS" data:ItemGroupDataSeq="206">
<ItemData ItemOID="IT.STUDYID" Value="CDISC01"/>
<ItemData ItemOID="IT.QS.DOMAIN" Value="QS"/>
<ItemData ItemOID="IT.USUBJID" Value="CDISC01.200001"/>
<ItemData ItemOID="IT.QS.QSSEQ" Value="54"/>
<ItemData ItemOID="IT.QS.QSTESTCD" Value="CSDD13"/>
<ItemData ItemOID="IT.QS.QSTEST" Value="Difficulty Falling Asleep"/>
<ItemData ItemOID="IT.QS.QSCAT" Value="CORNELL SCALE FOR DEPRESSION IN DEMENTIA (CSDD)"/>
<ItemData ItemOID="IT.QS.QSORRES" Value="Absent"/>
<ItemData ItemOID="IT.QS.QSSTRESC" Value="0"/>
<ItemData ItemOID="IT.QS.QSSTRESN" Value="0"/>
<ItemData ItemOID="IT.QS.VISITNUM" Value="10"/>
<ItemData ItemOID="IT.QS.VISIT" Value="WEEK 24"/>
<ItemData ItemOID="IT.QS.VISITDY" Value="169"/>
<ItemData ItemOID="IT.QS.QSDTC" Value="2004-02-02"/>
<ItemData ItemOID="IT.QS.QSDY" Value="126"/>
<ItemData ItemOID="IT.QS.QSEVLINT" Value="-P1W"/>
</ItemGroupData>
<ItemGroupData ItemGroupOID="IG.QSCS" data:ItemGroupDataSeq="207">
<ItemData ItemOID="IT.STUDYID" Value="CDISC01"/>
<ItemData ItemOID="IT.QS.DOMAIN" Value="QS"/>
<ItemData ItemOID="IT.USUBJID" Value="CDISC01.200001"/>
<ItemData ItemOID="IT.QS.QSSEQ" Value="55"/>
<ItemData ItemOID="IT.QS.QSTESTCD" Value="CSDD14"/>
<ItemData ItemOID="IT.QS.QSTEST" Value="Multiple Awakenings During Sleep"/>
<ItemData ItemOID="IT.QS.QSCAT" Value="CORNELL SCALE FOR DEPRESSION IN DEMENTIA (CSDD)"/>
<ItemData ItemOID="IT.QS.QSORRES" Value="Severe"/>
<ItemData ItemOID="IT.QS.QSSTRESC" Value="2"/>
<ItemData ItemOID="IT.QS.QSSTRESN" Value="2"/>
<ItemData ItemOID="IT.QS.VISITNUM" Value="1"/>
<ItemData ItemOID="IT.QS.VISIT" Value="SCREEN"/>
<ItemData ItemOID="IT.QS.VISITDY" Value="-13"/>
<ItemData ItemOID="IT.QS.QSDTC" Value="2003-09-09"/>
<ItemData ItemOID="IT.QS.QSDY" Value="-21"/>
<ItemData ItemOID="IT.QS.QSEVLINT" Value="-P1W"/>
</ItemGroupData>
<ItemGroupData ItemGroupOID="IG.QSCS" data:ItemGroupDataSeq="208">
<ItemData ItemOID="IT.STUDYID" Value="CDISC01"/>
<ItemData ItemOID="IT.QS.DOMAIN" Value="QS"/>
<ItemData ItemOID="IT.USUBJID" Value="CDISC01.200001"/>
<ItemData ItemOID="IT.QS.QSSEQ" Value="56"/>
<ItemData ItemOID="IT.QS.QSTESTCD" Value="CSDD14"/>
<ItemData ItemOID="IT.QS.QSTEST" Value="Multiple Awakenings During Sleep"/>
<ItemData ItemOID="IT.QS.QSCAT" Value="CORNELL SCALE FOR DEPRESSION IN DEMENTIA (CSDD)"/>
<ItemData ItemOID="IT.QS.QSORRES" Value="Severe"/>
<ItemData ItemOID="IT.QS.QSSTRESC" Value="2"/>
<ItemData ItemOID="IT.QS.QSSTRESN" Value="2"/>
<ItemData ItemOID="IT.QS.QSBLFL" Value="Y"/>
<ItemData ItemOID="IT.QS.VISITNUM" Value="2"/>
<ItemData ItemOID="IT.QS.VISIT" Value="BASELINE"/>
<ItemData ItemOID="IT.QS.VISITDY" Value="1"/>
<ItemData ItemOID="IT.QS.QSDTC" Value="2003-09-30"/>
<ItemData ItemOID="IT.QS.QSDY" Value="1"/>
<ItemData ItemOID="IT.QS.QSEVLINT" Value="-P1W"/>
</ItemGroupData>
<ItemGroupData ItemGroupOID="IG.QSCS" data:ItemGroupDataSeq="209">
<ItemData ItemOID="IT.STUDYID" Value="CDISC01"/>
<ItemData ItemOID="IT.QS.DOMAIN" Value="QS"/>
<ItemData ItemOID="IT.USUBJID" Value="CDISC01.200001"/>
<ItemData ItemOID="IT.QS.QSSEQ" Value="57"/>
