<?xml version="1.0" encoding="UTF-8"?>
<!-- Produced from SAS data using SAS Clinical Standards Toolkit -->
<ODM
xmlns="http://www.cdisc.org/ns/odm/v1.3"
xmlns:data="http://www.cdisc.org/ns/Dataset-XML/v1.0"
ODMVersion="1.3.2"
FileType="Snapshot"
FileOID="cdisc01.QSMM"
PriorFileOID="www.cdisc.org.Studycdisc01-Define-XML_2.0.0"
CreationDateTime="2022-05-31T16:59:25"
data:DatasetXMLVersion="1.0.0">
<ClinicalData StudyOID="cdisc01" MetaDataVersionOID="MDV.CDISC01.SDTMIG.3.1.2.SDTM.1.2">
<ItemGroupData ItemGroupOID="IG.QSMM" data:ItemGroupDataSeq="1">
<ItemData ItemOID="IT.STUDYID" Value="CDISC01"/>
<ItemData ItemOID="IT.QS.DOMAIN" Value="QS"/>
<ItemData ItemOID="IT.USUBJID" Value="CDISC01.100008"/>
<ItemData ItemOID="IT.QS.QSSEQ" Value="81"/>
<ItemData ItemOID="IT.QS.QSTESTCD" Value="MMSEA1"/>
<ItemData ItemOID="IT.QS.QSTEST" Value="Orientation time score"/>
<ItemData ItemOID="IT.QS.QSCAT" Value="MINI MENTAL STATE EXAMINATION (MMSE)"/>
<ItemData ItemOID="IT.QS.QSORRES" Value="4"/>
<ItemData ItemOID="IT.QS.QSSTRESC" Value="4"/>
<ItemData ItemOID="IT.QS.QSSTRESN" Value="4"/>
<ItemData ItemOID="IT.QS.VISITNUM" Value="1"/>
<ItemData ItemOID="IT.QS.VISIT" Value="SCREEN"/>
<ItemData ItemOID="IT.QS.VISITDY" Value="-13"/>
<ItemData ItemOID="IT.QS.QSDTC" Value="2003-04-15"/>
<ItemData ItemOID="IT.QS.QSDY" Value="-14"/>
</ItemGroupData>
<ItemGroupData ItemGroupOID="IG.QSMM" data:ItemGroupDataSeq="2">
<ItemData ItemOID="IT.STUDYID" Value="CDISC01"/>
<ItemData ItemOID="IT.QS.DOMAIN" Value="QS"/>
<ItemData ItemOID="IT.USUBJID" Value="CDISC01.100008"/>
<ItemData ItemOID="IT.QS.QSSEQ" Value="82"/>
<ItemData ItemOID="IT.QS.QSTESTCD" Value="MMSEA1"/>
<ItemData ItemOID="IT.QS.QSTEST" Value="Orientation time score"/>
<ItemData ItemOID="IT.QS.QSCAT" Value="MINI MENTAL STATE EXAMINATION (MMSE)"/>
<ItemData ItemOID="IT.QS.QSORRES" Value="3"/>
<ItemData ItemOID="IT.QS.QSSTRESC" Value="3"/>
<ItemData ItemOID="IT.QS.QSSTRESN" Value="3"/>
<ItemData ItemOID="IT.QS.QSBLFL" Value="Y"/>
<ItemData ItemOID="IT.QS.VISITNUM" Value="2"/>
<ItemData ItemOID="IT.QS.VISIT" Value="BASELINE"/>
<ItemData ItemOID="IT.QS.VISITDY" Value="1"/>
<ItemData ItemOID="IT.QS.QSDTC" Value="2003-04-29"/>
<ItemData ItemOID="IT.QS.QSDY" Value="1"/>
</ItemGroupData>
<ItemGroupData ItemGroupOID="IG.QSMM" data:ItemGroupDataSeq="3">
<ItemData ItemOID="IT.STUDYID" Value="CDISC01"/>
<ItemData ItemOID="IT.QS.DOMAIN" Value="QS"/>
<ItemData ItemOID="IT.USUBJID" Value="CDISC01.100008"/>
<ItemData ItemOID="IT.QS.QSSEQ" Value="83"/>
<ItemData ItemOID="IT.QS.QSTESTCD" Value="MMSEA1"/>
<ItemData ItemOID="IT.QS.QSTEST" Value="Orientation time score"/>
<ItemData ItemOID="IT.QS.QSCAT" Value="MINI MENTAL STATE EXAMINATION (MMSE)"/>
<ItemData ItemOID="IT.QS.QSORRES" Value="5"/>
<ItemData ItemOID="IT.QS.QSSTRESC" Value="5"/>
<ItemData ItemOID="IT.QS.QSSTRESN" Value="5"/>
<ItemData ItemOID="IT.QS.VISITNUM" Value="10"/>
<ItemData ItemOID="IT.QS.VISIT" Value="WEEK 24"/>
<ItemData ItemOID="IT.QS.VISITDY" Value="169"/>
<ItemData ItemOID="IT.QS.QSDTC" Value="2003-10-13"/>
<ItemData ItemOID="IT.QS.QSDY" Value="168"/>
</ItemGroupData>
<ItemGroupData ItemGroupOID="IG.QSMM" data:ItemGroupDataSeq="4">
<ItemData ItemOID="IT.STUDYID" Value="CDISC01"/>
<ItemData ItemOID="IT.QS.DOMAIN" Value="QS"/>
<ItemData ItemOID="IT.USUBJID" Value="CDISC01.100008"/>
<ItemData ItemOID="IT.QS.QSSEQ" Value="84"/>
<ItemData ItemOID="IT.QS.QSTESTCD" Value="MMSEA2"/>
<ItemData ItemOID="IT.QS.QSTEST" Value="Orientation place score"/>
<ItemData ItemOID="IT.QS.QSCAT" Value="MINI MENTAL STATE EXAMINATION (MMSE)"/>
<ItemData ItemOID="IT.QS.QSORRES" Value="4"/>
<ItemData ItemOID="IT.QS.QSSTRESC" Value="4"/>
<ItemData ItemOID="IT.QS.QSSTRESN" Value="4"/>
<ItemData ItemOID="IT.QS.VISITNUM" Value="1"/>
<ItemData ItemOID="IT.QS.VISIT" Value="SCREEN"/>
<ItemData ItemOID="IT.QS.VISITDY" Value="-13"/>
<ItemData ItemOID="IT.QS.QSDTC" Value="2003-04-15"/>
<ItemData ItemOID="IT.QS.QSDY" Value="-14"/>
</ItemGroupData>
<ItemGroupData ItemGroupOID="IG.QSMM" data:ItemGroupDataSeq="5">
<ItemData ItemOID="IT.STUDYID" Value="CDISC01"/>
<ItemData ItemOID="IT.QS.DOMAIN" Value="QS"/>
<ItemData ItemOID="IT.USUBJID" Value="CDISC01.100008"/>
<ItemData ItemOID="IT.QS.QSSEQ" Value="85"/>
<ItemData ItemOID="IT.QS.QSTESTCD" Value="MMSEA2"/>
<ItemData ItemOID="IT.QS.QSTEST" Value="Orientation place score"/>
<ItemData ItemOID="IT.QS.QSCAT" Value="MINI MENTAL STATE EXAMINATION (MMSE)"/>
<ItemData ItemOID="IT.QS.QSORRES" Value="4"/>
<ItemData ItemOID="IT.QS.QSSTRESC" Value="4"/>
<ItemData ItemOID="IT.QS.QSSTRESN" Value="4"/>
<ItemData ItemOID="IT.QS.QSBLFL" Value="Y"/>
<ItemData ItemOID="IT.QS.VISITNUM" Value="2"/>
<ItemData ItemOID="IT.QS.VISIT" Value="BASELINE"/>
<ItemData ItemOID="IT.QS.VISITDY" Value="1"/>
<ItemData ItemOID="IT.QS.QSDTC" Value="2003-04-29"/>
<ItemData ItemOID="IT.QS.QSDY" Value="1"/>
</ItemGroupData>
<ItemGroupData ItemGroupOID="IG.QSMM" data:ItemGroupDataSeq="6">
<ItemData ItemOID="IT.STUDYID" Value="CDISC01"/>
<ItemData ItemOID="IT.QS.DOMAIN" Value="QS"/>
<ItemData ItemOID="IT.USUBJID" Value="CDISC01.100008"/>
<ItemData ItemOID="IT.QS.QSSEQ" Value="86"/>
<ItemData ItemOID="IT.QS.QSTESTCD" Value="MMSEA2"/>
<ItemData ItemOID="IT.QS.QSTEST" Value="Orientation place score"/>
<ItemData ItemOID="IT.QS.QSCAT" Value="MINI MENTAL STATE EXAMINATION (MMSE)"/>
<ItemData ItemOID="IT.QS.QSORRES" Value="5"/>
<ItemData ItemOID="IT.QS.QSSTRESC" Value="5"/>
<ItemData ItemOID="IT.QS.QSSTRESN" Value="5"/>
<ItemData ItemOID="IT.QS.VISITNUM" Value="10"/>
<ItemData ItemOID="IT.QS.VISIT" Value="WEEK 24"/>
<ItemData ItemOID="IT.QS.VISITDY" Value="169"/>
<ItemData ItemOID="IT.QS.QSDTC" Value="2003-10-13"/>
<ItemData ItemOID="IT.QS.QSDY" Value="168"/>
</ItemGroupData>
<ItemGroupData ItemGroupOID="IG.QSMM" data:ItemGroupDataSeq="7">
<ItemData ItemOID="IT.STUDYID" Value="CDISC01"/>
<ItemData ItemOID="IT.QS.DOMAIN" Value="QS"/>
<ItemData ItemOID="IT.USUBJID" Value="CDISC01.100008"/>
<ItemData ItemOID="IT.QS.QSSEQ" Value="87"/>
<ItemData ItemOID="IT.QS.QSTESTCD" Value="MMSEB"/>
<ItemData ItemOID="IT.QS.QSTEST" Value="Registration"/>
<ItemData ItemOID="IT.QS.QSCAT" Value="MINI MENTAL STATE EXAMINATION (MMSE)"/>
<ItemData ItemOID="IT.QS.QSORRES" Value="3"/>
<ItemData ItemOID="IT.QS.QSSTRESC" Value="3"/>
<ItemData ItemOID="IT.QS.QSSTRESN" Value="3"/>
<ItemData ItemOID="IT.QS.VISITNUM" Value="1"/>
<ItemData ItemOID="IT.QS.VISIT" Value="SCREEN"/>
<ItemData ItemOID="IT.QS.VISITDY" Value="-13"/>
<ItemData ItemOID="IT.QS.QSDTC" Value="2003-04-15"/>
<ItemData ItemOID="IT.QS.QSDY" Value="-14"/>
</ItemGroupData>
<ItemGroupData ItemGroupOID="IG.QSMM" data:ItemGroupDataSeq="8">
<ItemData ItemOID="IT.STUDYID" Value="CDISC01"/>
<ItemData ItemOID="IT.QS.DOMAIN" Value="QS"/>
<ItemData ItemOID="IT.USUBJID" Value="CDISC01.100008"/>
<ItemData ItemOID="IT.QS.QSSEQ" Value="88"/>
<ItemData ItemOID="IT.QS.QSTESTCD" Value="MMSEB"/>
<ItemData ItemOID="IT.QS.QSTEST" Value="Registration"/>
<ItemData ItemOID="IT.QS.QSCAT" Value="MINI MENTAL STATE EXAMINATION (MMSE)"/>
<ItemData ItemOID="IT.QS.QSORRES" Value="3"/>
<ItemData ItemOID="IT.QS.QSSTRESC" Value="3"/>
<ItemData ItemOID="IT.QS.QSSTRESN" Value="3"/>
<ItemData ItemOID="IT.QS.QSBLFL" Value="Y"/>
<ItemData ItemOID="IT.QS.VISITNUM" Value="2"/>
<ItemData ItemOID="IT.QS.VISIT" Value="BASELINE"/>
<ItemData ItemOID="IT.QS.VISITDY" Value="1"/>
<ItemData ItemOID="IT.QS.QSDTC" Value="2003-04-29"/>
<ItemData ItemOID="IT.QS.QSDY" Value="1"/>
</ItemGroupData>
<ItemGroupData ItemGroupOID="IG.QSMM" data:ItemGroupDataSeq="9">
<ItemData ItemOID="IT.STUDYID" Value="CDISC01"/>
<ItemData ItemOID="IT.QS.DOMAIN" Value="QS"/>
<ItemData ItemOID="IT.USUBJID" Value="CDISC01.100008"/>
<ItemData ItemOID="IT.QS.QSSEQ" Value="89"/>
<ItemData ItemOID="IT.QS.QSTESTCD" Value="MMSEB"/>
<ItemData ItemOID="IT.QS.QSTEST" Value="Registration"/>
<ItemData ItemOID="IT.QS.QSCAT" Value="MINI MENTAL STATE EXAMINATION (MMSE)"/>
<ItemData ItemOID="IT.QS.QSORRES" Value="3"/>
<ItemData ItemOID="IT.QS.QSSTRESC" Value="3"/>
<ItemData ItemOID="IT.QS.QSSTRESN" Value="3"/>
<ItemData ItemOID="IT.QS.VISITNUM" Value="10"/>
<ItemData ItemOID="IT.QS.VISIT" Value="WEEK 24"/>
<ItemData ItemOID="IT.QS.VISITDY" Value="169"/>
<ItemData ItemOID="IT.QS.QSDTC" Value="2003-10-13"/>
<ItemData ItemOID="IT.QS.QSDY" Value="168"/>
</ItemGroupData>
<ItemGroupData ItemGroupOID="IG.QSMM" data:ItemGroupDataSeq="10">
<ItemData ItemOID="IT.STUDYID" Value="CDISC01"/>
<ItemData ItemOID="IT.QS.DOMAIN" Value="QS"/>
<ItemData ItemOID="IT.USUBJID" Value="CDISC01.100008"/>
<ItemData ItemOID="IT.QS.QSSEQ" Value="90"/>
<ItemData ItemOID="IT.QS.QSTESTCD" Value="MMSEC"/>
<ItemData ItemOID="IT.QS.QSTEST" Value="Attention and Calculation"/>
<ItemData ItemOID="IT.QS.QSCAT" Value="MINI MENTAL STATE EXAMINATION (MMSE)"/>
<ItemData ItemOID="IT.QS.QSORRES" Value="5"/>
<ItemData ItemOID="IT.QS.QSSTRESC" Value="5"/>
<ItemData ItemOID="IT.QS.QSSTRESN" Value="5"/>
<ItemData ItemOID="IT.QS.VISITNUM" Value="1"/>
<ItemData ItemOID="IT.QS.VISIT" Value="SCREEN"/>
<ItemData ItemOID="IT.QS.VISITDY" Value="-13"/>
<ItemData ItemOID="IT.QS.QSDTC" Value="2003-04-15"/>
<ItemData ItemOID="IT.QS.QSDY" Value="-14"/>
</ItemGroupData>
<ItemGroupData ItemGroupOID="IG.QSMM" data:ItemGroupDataSeq="11">
<ItemData ItemOID="IT.STUDYID" Value="CDISC01"/>
<ItemData ItemOID="IT.QS.DOMAIN" Value="QS"/>
<ItemData ItemOID="IT.USUBJID" Value="CDISC01.100008"/>
<ItemData ItemOID="IT.QS.QSSEQ" Value="91"/>
<ItemData ItemOID="IT.QS.QSTESTCD" Value="MMSEC"/>
<ItemData ItemOID="IT.QS.QSTEST" Value="Attention and Calculation"/>
<ItemData ItemOID="IT.QS.QSCAT" Value="MINI MENTAL STATE EXAMINATION (MMSE)"/>
<ItemData ItemOID="IT.QS.QSORRES" Value="5"/>
<ItemData ItemOID="IT.QS.QSSTRESC" Value="5"/>
<ItemData ItemOID="IT.QS.QSSTRESN" Value="5"/>
<ItemData ItemOID="IT.QS.QSBLFL" Value="Y"/>
<ItemData ItemOID="IT.QS.VISITNUM" Value="2"/>
<ItemData ItemOID="IT.QS.VISIT" Value="BASELINE"/>
<ItemData ItemOID="IT.QS.VISITDY" Value="1"/>
<ItemData ItemOID="IT.QS.QSDTC" Value="2003-04-29"/>
<ItemData ItemOID="IT.QS.QSDY" Value="1"/>
</ItemGroupData>
<ItemGroupData ItemGroupOID="IG.QSMM" data:ItemGroupDataSeq="12">
<ItemData ItemOID="IT.STUDYID" Value="CDISC01"/>
<ItemData ItemOID="IT.QS.DOMAIN" Value="QS"/>
<ItemData ItemOID="IT.USUBJID" Value="CDISC01.100008"/>
<ItemData ItemOID="IT.QS.QSSEQ" Value="92"/>
<ItemData ItemOID="IT.QS.QSTESTCD" Value="MMSEC"/>
<ItemData ItemOID="IT.QS.QSTEST" Value="Attention and Calculation"/>
<ItemData ItemOID="IT.QS.QSCAT" Value="MINI MENTAL STATE EXAMINATION (MMSE)"/>
<ItemData ItemOID="IT.QS.QSORRES" Value="5"/>
<ItemData ItemOID="IT.QS.QSSTRESC" Value="5"/>
<ItemData ItemOID="IT.QS.QSSTRESN" Value="5"/>
<ItemData ItemOID="IT.QS.VISITNUM" Value="10"/>
<ItemData ItemOID="IT.QS.VISIT" Value="WEEK 24"/>
<ItemData ItemOID="IT.QS.VISITDY" Value="169"/>
<ItemData ItemOID="IT.QS.QSDTC" Value="2003-10-13"/>
<ItemData ItemOID="IT.QS.QSDY" Value="168"/>
</ItemGroupData>
<ItemGroupData ItemGroupOID="IG.QSMM" data:ItemGroupDataSeq="13">
<ItemData ItemOID="IT.STUDYID" Value="CDISC01"/>
<ItemData ItemOID="IT.QS.DOMAIN" Value="QS"/>
<ItemData ItemOID="IT.USUBJID" Value="CDISC01.100008"/>
<ItemData ItemOID="IT.QS.QSSEQ" Value="93"/>
<ItemData ItemOID="IT.QS.QSTESTCD" Value="MMSED"/>
<ItemData ItemOID="IT.QS.QSTEST" Value="Recall"/>
<ItemData ItemOID="IT.QS.QSCAT" Value="MINI MENTAL STATE EXAMINATION (MMSE)"/>
<ItemData ItemOID="IT.QS.QSORRES" Value="0"/>
<ItemData ItemOID="IT.QS.QSSTRESC" Value="0"/>
<ItemData ItemOID="IT.QS.QSSTRESN" Value="0"/>
<ItemData ItemOID="IT.QS.VISITNUM" Value="1"/>
<ItemData ItemOID="IT.QS.VISIT" Value="SCREEN"/>
<ItemData ItemOID="IT.QS.VISITDY" Value="-13"/>
<ItemData ItemOID="IT.QS.QSDTC" Value="2003-04-15"/>
<ItemData ItemOID="IT.QS.QSDY" Value="-14"/>
</ItemGroupData>
<ItemGroupData ItemGroupOID="IG.QSMM" data:ItemGroupDataSeq="14">
<ItemData ItemOID="IT.STUDYID" Value="CDISC01"/>
<ItemData ItemOID="IT.QS.DOMAIN" Value="QS"/>
<ItemData ItemOID="IT.USUBJID" Value="CDISC01.100008"/>
<ItemData ItemOID="IT.QS.QSSEQ" Value="94"/>
<ItemData ItemOID="IT.QS.QSTESTCD" Value="MMSED"/>
<ItemData ItemOID="IT.QS.QSTEST" Value="Recall"/>
<ItemData ItemOID="IT.QS.QSCAT" Value="MINI MENTAL STATE EXAMINATION (MMSE)"/>
<ItemData ItemOID="IT.QS.QSORRES" Value="2"/>
<ItemData ItemOID="IT.QS.QSSTRESC" Value="2"/>
<ItemData ItemOID="IT.QS.QSSTRESN" Value="2"/>
<ItemData ItemOID="IT.QS.QSBLFL" Value="Y"/>
<ItemData ItemOID="IT.QS.VISITNUM" Value="2"/>
<ItemData ItemOID="IT.QS.VISIT" Value="BASELINE"/>
<ItemData ItemOID="IT.QS.VISITDY" Value="1"/>
<ItemData ItemOID="IT.QS.QSDTC" Value="2003-04-29"/>
<ItemData ItemOID="IT.QS.QSDY" Value="1"/>
</ItemGroupData>
<ItemGroupData ItemGroupOID="IG.QSMM" data:ItemGroupDataSeq="15">
<ItemData ItemOID="IT.STUDYID" Value="CDISC01"/>
<ItemData ItemOID="IT.QS.DOMAIN" Value="QS"/>
<ItemData ItemOID="IT.USUBJID" Value="CDISC01.100008"/>
<ItemData ItemOID="IT.QS.QSSEQ" Value="95"/>
<ItemData ItemOID="IT.QS.QSTESTCD" Value="MMSED"/>
<ItemData ItemOID="IT.QS.QSTEST" Value="Recall"/>
<ItemData ItemOID="IT.QS.QSCAT" Value="MINI MENTAL STATE EXAMINATION (MMSE)"/>
<ItemData ItemOID="IT.QS.QSORRES" Value="2"/>
<ItemData ItemOID="IT.QS.QSSTRESC" Value="2"/>
<ItemData ItemOID="IT.QS.QSSTRESN" Value="2"/>
<ItemData ItemOID="IT.QS.VISITNUM" Value="10"/>
<ItemData ItemOID="IT.QS.VISIT" Value="WEEK 24"/>
<ItemData ItemOID="IT.QS.VISITDY" Value="169"/>
<ItemData ItemOID="IT.QS.QSDTC" Value="2003-10-13"/>
<ItemData ItemOID="IT.QS.QSDY" Value="168"/>
</ItemGroupData>
<ItemGroupData ItemGroupOID="IG.QSMM" data:ItemGroupDataSeq="16">
<ItemData ItemOID="IT.STUDYID" Value="CDISC01"/>
<ItemData ItemOID="IT.QS.DOMAIN" Value="QS"/>
<ItemData ItemOID="IT.USUBJID" Value="CDISC01.100008"/>
<ItemData ItemOID="IT.QS.QSSEQ" Value="96"/>
<ItemData ItemOID="IT.QS.QSTESTCD" Value="MMSEET"/>
<ItemData ItemOID="IT.QS.QSTEST" Value="Language"/>
<ItemData ItemOID="IT.QS.QSCAT" Value="MINI MENTAL STATE EXAMINATION (MMSE)"/>
<ItemData ItemOID="IT.QS.QSORRES" Value="8"/>
<ItemData ItemOID="IT.QS.QSSTRESC" Value="8"/>
<ItemData ItemOID="IT.QS.QSSTRESN" Value="8"/>
<ItemData ItemOID="IT.QS.VISITNUM" Value="1"/>
<ItemData ItemOID="IT.QS.VISIT" Value="SCREEN"/>
<ItemData ItemOID="IT.QS.VISITDY" Value="-13"/>
<ItemData ItemOID="IT.QS.QSDTC" Value="2003-04-15"/>
<ItemData ItemOID="IT.QS.QSDY" Value="-14"/>
</ItemGroupData>
<ItemGroupData ItemGroupOID="IG.QSMM" data:ItemGroupDataSeq="17">
<ItemData ItemOID="IT.STUDYID" Value="CDISC01"/>
<ItemData ItemOID="IT.QS.DOMAIN" Value="QS"/>
<ItemData ItemOID="IT.USUBJID" Value="CDISC01.100008"/>
<ItemData ItemOID="IT.QS.QSSEQ" Value="97"/>
<ItemData ItemOID="IT.QS.QSTESTCD" Value="MMSEET"/>
<ItemData ItemOID="IT.QS.QSTEST" Value="Language"/>
<ItemData ItemOID="IT.QS.QSCAT" Value="MINI MENTAL STATE EXAMINATION (MMSE)"/>
<ItemData ItemOID="IT.QS.QSORRES" Value="7"/>
<ItemData ItemOID="IT.QS.QSSTRESC" Value="7"/>
<ItemData ItemOID="IT.QS.QSSTRESN" Value="7"/>
<ItemData ItemOID="IT.QS.QSBLFL" Value="Y"/>
<ItemData ItemOID="IT.QS.VISITNUM" Value="2"/>
<ItemData ItemOID="IT.QS.VISIT" Value="BASELINE"/>
<ItemData ItemOID="IT.QS.VISITDY" Value="1"/>
<ItemData ItemOID="IT.QS.QSDTC" Value="2003-04-29"/>
<ItemData ItemOID="IT.QS.QSDY" Value="1"/>
</ItemGroupData>
<ItemGroupData ItemGroupOID="IG.QSMM" data:ItemGroupDataSeq="18">
<ItemData ItemOID="IT.STUDYID" Value="CDISC01"/>
<ItemData ItemOID="IT.QS.DOMAIN" Value="QS"/>
<ItemData ItemOID="IT.USUBJID" Value="CDISC01.100008"/>
<ItemData ItemOID="IT.QS.QSSEQ" Value="98"/>
<ItemData ItemOID="IT.QS.QSTESTCD" Value="MMSEET"/>
<ItemData ItemOID="IT.QS.QSTEST" Value="Language"/>
<ItemData ItemOID="IT.QS.QSCAT" Value="MINI MENTAL STATE EXAMINATION (MMSE)"/>
<ItemData ItemOID="IT.QS.QSORRES" Value="9"/>
<ItemData ItemOID="IT.QS.QSSTRESC" Value="9"/>
<ItemData ItemOID="IT.QS.QSSTRESN" Value="9"/>
<ItemData ItemOID="IT.QS.VISITNUM" Value="10"/>
<ItemData ItemOID="IT.QS.VISIT" Value="WEEK 24"/>
<ItemData ItemOID="IT.QS.VISITDY" Value="169"/>
<ItemData ItemOID="IT.QS.QSDTC" Value="2003-10-13"/>
<ItemData ItemOID="IT.QS.QSDY" Value="168"/>
</ItemGroupData>
<ItemGroupData ItemGroupOID="IG.QSMM" data:ItemGroupDataSeq="19">
<ItemData ItemOID="IT.STUDYID" Value="CDISC01"/>
<ItemData ItemOID="IT.QS.DOMAIN" Value="QS"/>
<ItemData ItemOID="IT.USUBJID" Value="CDISC01.100008"/>
<ItemData ItemOID="IT.QS.QSSEQ" Value="99"/>
<ItemData ItemOID="IT.QS.QSTESTCD" Value="MMSETOT"/>
<ItemData ItemOID="IT.QS.QSTEST" Value="Total Score"/>
<ItemData ItemOID="IT.QS.QSCAT" Value="MINI MENTAL STATE EXAMINATION (MMSE)"/>
<ItemData ItemOID="IT.QS.QSORRES" Value="24"/>
<ItemData ItemOID="IT.QS.QSSTRESC" Value="24"/>
<ItemData ItemOID="IT.QS.QSSTRESN" Value="24"/>
<ItemData ItemOID="IT.QS.VISITNUM" Value="1"/>
<ItemData ItemOID="IT.QS.VISIT" Value="SCREEN"/>
<ItemData ItemOID="IT.QS.VISITDY" Value="-13"/>
<ItemData ItemOID="IT.QS.QSDTC" Value="2003-04-15"/>
<ItemData ItemOID="IT.QS.QSDY" Value="-14"/>
</ItemGroupData>
<ItemGroupData ItemGroupOID="IG.QSMM" data:ItemGroupDataSeq="20">
<ItemData ItemOID="IT.STUDYID" Value="CDISC01"/>
<ItemData ItemOID="IT.QS.DOMAIN" Value="QS"/>
<ItemData ItemOID="IT.USUBJID" Value="CDISC01.100008"/>
<ItemData ItemOID="IT.QS.QSSEQ" Value="100"/>
<ItemData ItemOID="IT.QS.QSTESTCD" Value="MMSETOT"/>
<ItemData ItemOID="IT.QS.QSTEST" Value="Total Score"/>
<ItemData ItemOID="IT.QS.QSCAT" Value="MINI MENTAL STATE EXAMINATION (MMSE)"/>
<ItemData ItemOID="IT.QS.QSORRES" Value="24"/>
<ItemData ItemOID="IT.QS.QSSTRESC" Value="24"/>
<ItemData ItemOID="IT.QS.QSSTRESN" Value="24"/>
<ItemData ItemOID="IT.QS.QSBLFL" Value="Y"/>
<ItemData ItemOID="IT.QS.VISITNUM" Value="2"/>
<ItemData ItemOID="IT.QS.VISIT" Value="BASELINE"/>
<ItemData ItemOID="IT.QS.VISITDY" Value="1"/>
<ItemData ItemOID="IT.QS.QSDTC" Value="2003-04-29"/>
<ItemData ItemOID="IT.QS.QSDY" Value="1"/>
</ItemGroupData>
<ItemGroupData ItemGroupOID="IG.QSMM" data:ItemGroupDataSeq="21">
<ItemData ItemOID="IT.STUDYID" Value="CDISC01"/>
<ItemData ItemOID="IT.QS.DOMAIN" Value="QS"/>
<ItemData ItemOID="IT.USUBJID" Value="CDISC01.100008"/>
<ItemData ItemOID="IT.QS.QSSEQ" Value="101"/>
<ItemData ItemOID="IT.QS.QSTESTCD" Value="MMSETOT"/>
<ItemData ItemOID="IT.QS.QSTEST" Value="Total Score"/>
<ItemData ItemOID="IT.QS.QSCAT" Value="MINI MENTAL STATE EXAMINATION (MMSE)"/>
<ItemData ItemOID="IT.QS.QSORRES" Value="29"/>
<ItemData ItemOID="IT.QS.QSSTRESC" Value="29"/>
<ItemData ItemOID="IT.QS.QSSTRESN" Value="29"/>
<ItemData ItemOID="IT.QS.VISITNUM" Value="10"/>
<ItemData ItemOID="IT.QS.VISIT" Value="WEEK 24"/>
<ItemData ItemOID="IT.QS.VISITDY" Value="169"/>
<ItemData ItemOID="IT.QS.QSDTC" Value="2003-10-13"/>
<ItemData ItemOID="IT.QS.QSDY" Value="168"/>
</ItemGroupData>
<ItemGroupData ItemGroupOID="IG.QSMM" data:ItemGroupDataSeq="22">
<ItemData ItemOID="IT.STUDYID" Value="CDISC01"/>
<ItemData ItemOID="IT.QS.DOMAIN" Value="QS"/>
<ItemData ItemOID="IT.USUBJID" Value="CDISC01.100014"/>
<ItemData ItemOID="IT.QS.QSSEQ" Value="81"/>
<ItemData ItemOID="IT.QS.QSTESTCD" Value="MMSEA1"/>
<ItemData ItemOID="IT.QS.QSTEST" Value="Orientation time score"/>
<ItemData ItemOID="IT.QS.QSCAT" Value="MINI MENTAL STATE EXAMINATION (MMSE)"/>
<ItemData ItemOID="IT.QS.QSORRES" Value="2"/>
<ItemData ItemOID="IT.QS.QSSTRESC" Value="2"/>
<ItemData ItemOID="IT.QS.QSSTRESN" Value="2"/>
<ItemData ItemOID="IT.QS.VISITNUM" Value="1"/>
<ItemData ItemOID="IT.QS.VISIT" Value="SCREEN"/>
<ItemData ItemOID="IT.QS.VISITDY" Value="-13"/>
<ItemData ItemOID="IT.QS.QSDTC" Value="2003-10-06"/>
<ItemData ItemOID="IT.QS.QSDY" Value="-9"/>
</ItemGroupData>
<ItemGroupData ItemGroupOID="IG.QSMM" data:ItemGroupDataSeq="23">
<ItemData ItemOID="IT.STUDYID" Value="CDISC01"/>
<ItemData ItemOID="IT.QS.DOMAIN" Value="QS"/>
<ItemData ItemOID="IT.USUBJID" Value="CDISC01.100014"/>
<ItemData ItemOID="IT.QS.QSSEQ" Value="82"/>
<ItemData ItemOID="IT.QS.QSTESTCD" Value="MMSEA1"/>
<ItemData ItemOID="IT.QS.QSTEST" Value="Orientation time score"/>
<ItemData ItemOID="IT.QS.QSCAT" Value="MINI MENTAL STATE EXAMINATION (MMSE)"/>
<ItemData ItemOID="IT.QS.QSORRES" Value="2"/>
<ItemData ItemOID="IT.QS.QSSTRESC" Value="2"/>
<ItemData ItemOID="IT.QS.QSSTRESN" Value="2"/>
<ItemData ItemOID="IT.QS.QSBLFL" Value="Y"/>
<ItemData ItemOID="IT.QS.VISITNUM" Value="2"/>
<ItemData ItemOID="IT.QS.VISIT" Value="BASELINE"/>
<ItemData ItemOID="IT.QS.VISITDY" Value="1"/>
<ItemData ItemOID="IT.QS.QSDTC" Value="2003-10-15"/>
<ItemData ItemOID="IT.QS.QSDY" Value="1"/>
</ItemGroupData>
<ItemGroupData ItemGroupOID="IG.QSMM" data:ItemGroupDataSeq="24">
<ItemData ItemOID="IT.STUDYID" Value="CDISC01"/>
<ItemData ItemOID="IT.QS.DOMAIN" Value="QS"/>
<ItemData ItemOID="IT.USUBJID" Value="CDISC01.100014"/>
<ItemData ItemOID="IT.QS.QSSEQ" Value="83"/>
<ItemData ItemOID="IT.QS.QSTESTCD" Value="MMSEA1"/>
<ItemData ItemOID="IT.QS.QSTEST" Value="Orientation time score"/>
<ItemData ItemOID="IT.QS.QSCAT" Value="MINI MENTAL STATE EXAMINATION (MMSE)"/>
<ItemData ItemOID="IT.QS.QSORRES" Value="3"/>
<ItemData ItemOID="IT.QS.QSSTRESC" Value="3"/>
<ItemData ItemOID="IT.QS.QSSTRESN" Value="3"/>
<ItemData ItemOID="IT.QS.VISITNUM" Value="10"/>
<ItemData ItemOID="IT.QS.VISIT" Value="WEEK 24"/>
<ItemData ItemOID="IT.QS.VISITDY" Value="169"/>
<ItemData ItemOID="IT.QS.QSDTC" Value="2004-03-30"/>
<ItemData ItemOID="IT.QS.QSDY" Value="168"/>
</ItemGroupData>
<ItemGroupData ItemGroupOID="IG.QSMM" data:ItemGroupDataSeq="25">
<ItemData ItemOID="IT.STUDYID" Value="CDISC01"/>
<ItemData ItemOID="IT.QS.DOMAIN" Value="QS"/>
<ItemData ItemOID="IT.USUBJID" Value="CDISC01.100014"/>
<ItemData ItemOID="IT.QS.QSSEQ" Value="84"/>
<ItemData ItemOID="IT.QS.QSTESTCD" Value="MMSEA2"/>
<ItemData ItemOID="IT.QS.QSTEST" Value="Orientation place score"/>
<ItemData ItemOID="IT.QS.QSCAT" Value="MINI MENTAL STATE EXAMINATION (MMSE)"/>
<ItemData ItemOID="IT.QS.QSORRES" Value="2"/>
<ItemData ItemOID="IT.QS.QSSTRESC" Value="2"/>
<ItemData ItemOID="IT.QS.QSSTRESN" Value="2"/>
<ItemData ItemOID="IT.QS.VISITNUM" Value="1"/>
<ItemData ItemOID="IT.QS.VISIT" Value="SCREEN"/>
<ItemData ItemOID="IT.QS.VISITDY" Value="-13"/>
<ItemData ItemOID="IT.QS.QSDTC" Value="2003-10-06"/>
<ItemData ItemOID="IT.QS.QSDY" Value="-9"/>
</ItemGroupData>
<ItemGroupData ItemGroupOID="IG.QSMM" data:ItemGroupDataSeq="26">
<ItemData ItemOID="IT.STUDYID" Value="CDISC01"/>
<ItemData ItemOID="IT.QS.DOMAIN" Value="QS"/>
<ItemData ItemOID="IT.USUBJID" Value="CDISC01.100014"/>
<ItemData ItemOID="IT.QS.QSSEQ" Value="85"/>
<ItemData ItemOID="IT.QS.QSTESTCD" Value="MMSEA2"/>
<ItemData ItemOID="IT.QS.QSTEST" Value="Orientation place score"/>
<ItemData ItemOID="IT.QS.QSCAT" Value="MINI MENTAL STATE EXAMINATION (MMSE)"/>
<ItemData ItemOID="IT.QS.QSORRES" Value="4"/>
<ItemData ItemOID="IT.QS.QSSTRESC" Value="4"/>
<ItemData ItemOID="IT.QS.QSSTRESN" Value="4"/>
<ItemData ItemOID="IT.QS.QSBLFL" Value="Y"/>
<ItemData ItemOID="IT.QS.VISITNUM" Value="2"/>
<ItemData ItemOID="IT.QS.VISIT" Value="BASELINE"/>
<ItemData ItemOID="IT.QS.VISITDY" Value="1"/>
<ItemData ItemOID="IT.QS.QSDTC" Value="2003-10-15"/>
<ItemData ItemOID="IT.QS.QSDY" Value="1"/>
</ItemGroupData>
<ItemGroupData ItemGroupOID="IG.QSMM" data:ItemGroupDataSeq="27">
<ItemData ItemOID="IT.STUDYID" Value="CDISC01"/>
<ItemData ItemOID="IT.QS.DOMAIN" Value="QS"/>
<ItemData ItemOID="IT.USUBJID" Value="CDISC01.100014"/>
<ItemData ItemOID="IT.QS.QSSEQ" Value="86"/>
<ItemData ItemOID="IT.QS.QSTESTCD" Value="MMSEA2"/>
<ItemData ItemOID="IT.QS.QSTEST" Value="Orientation place score"/>
<ItemData ItemOID="IT.QS.QSCAT" Value="MINI MENTAL STATE EXAMINATION (MMSE)"/>
<ItemData ItemOID="IT.QS.QSORRES" Value="3"/>
<ItemData ItemOID="IT.QS.QSSTRESC" Value="3"/>
<ItemData ItemOID="IT.QS.QSSTRESN" Value="3"/>
<ItemData ItemOID="IT.QS.VISITNUM" Value="10"/>
<ItemData ItemOID="IT.QS.VISIT" Value="WEEK 24"/>
<ItemData ItemOID="IT.QS.VISITDY" Value="169"/>
<ItemData ItemOID="IT.QS.QSDTC" Value="2004-03-30"/>
<ItemData ItemOID="IT.QS.QSDY" Value="168"/>
</ItemGroupData>
<ItemGroupData ItemGroupOID="IG.QSMM" data:ItemGroupDataSeq="28">
<ItemData ItemOID="IT.STUDYID" Value="CDISC01"/>
<ItemData ItemOID="IT.QS.DOMAIN" Value="QS"/>
<ItemData ItemOID="IT.USUBJID" Value="CDISC01.100014"/>
<ItemData ItemOID="IT.QS.QSSEQ" Value="87"/>
<ItemData ItemOID="IT.QS.QSTESTCD" Value="MMSEB"/>
<ItemData ItemOID="IT.QS.QSTEST" Value="Registration"/>
<ItemData ItemOID="IT.QS.QSCAT" Value="MINI MENTAL STATE EXAMINATION (MMSE)"/>
<ItemData ItemOID="IT.QS.QSORRES" Value="3"/>
<ItemData ItemOID="IT.QS.QSSTRESC" Value="3"/>
<ItemData ItemOID="IT.QS.QSSTRESN" Value="3"/>
<ItemData ItemOID="IT.QS.VISITNUM" Value="1"/>
<ItemData ItemOID="IT.QS.VISIT" Value="SCREEN"/>
<ItemData ItemOID="IT.QS.VISITDY" Value="-13"/>
<ItemData ItemOID="IT.QS.QSDTC" Value="2003-10-06"/>
<ItemData ItemOID="IT.QS.QSDY" Value="-9"/>
</ItemGroupData>
<ItemGroupData ItemGroupOID="IG.QSMM" data:ItemGroupDataSeq="29">
<ItemData ItemOID="IT.STUDYID" Value="CDISC01"/>
<ItemData ItemOID="IT.QS.DOMAIN" Value="QS"/>
<ItemData ItemOID="IT.USUBJID" Value="CDISC01.100014"/>
<ItemData ItemOID="IT.QS.QSSEQ" Value="88"/>
<ItemData ItemOID="IT.QS.QSTESTCD" Value="MMSEB"/>
<ItemData ItemOID="IT.QS.QSTEST" Value="Registration"/>
<ItemData ItemOID="IT.QS.QSCAT" Value="MINI MENTAL STATE EXAMINATION (MMSE)"/>
<ItemData ItemOID="IT.QS.QSORRES" Value="3"/>
<ItemData ItemOID="IT.QS.QSSTRESC" Value="3"/>
<ItemData ItemOID="IT.QS.QSSTRESN" Value="3"/>
<ItemData ItemOID="IT.QS.QSBLFL" Value="Y"/>
<ItemData ItemOID="IT.QS.VISITNUM" Value="2"/>
<ItemData ItemOID="IT.QS.VISIT" Value="BASELINE"/>
<ItemData ItemOID="IT.QS.VISITDY" Value="1"/>
<ItemData ItemOID="IT.QS.QSDTC" Value="2003-10-15"/>
<ItemData ItemOID="IT.QS.QSDY" Value="1"/>
</ItemGroupData>
<ItemGroupData ItemGroupOID="IG.QSMM" data:ItemGroupDataSeq="30">
<ItemData ItemOID="IT.STUDYID" Value="CDISC01"/>
<ItemData ItemOID="IT.QS.DOMAIN" Value="QS"/>
<ItemData ItemOID="IT.USUBJID" Value="CDISC01.100014"/>
<ItemData ItemOID="IT.QS.QSSEQ" Value="89"/>
<ItemData ItemOID="IT.QS.QSTESTCD" Value="MMSEB"/>
<ItemData ItemOID="IT.QS.QSTEST" Value="Registration"/>
<ItemData ItemOID="IT.QS.QSCAT" Value="MINI MENTAL STATE EXAMINATION (MMSE)"/>
<ItemData ItemOID="IT.QS.QSORRES" Value="3"/>
<ItemData ItemOID="IT.QS.QSSTRESC" Value="3"/>
<ItemData ItemOID="IT.QS.QSSTRESN" Value="3"/>
<ItemData ItemOID="IT.QS.VISITNUM" Value="10"/>
<ItemData ItemOID="IT.QS.VISIT" Value="WEEK 24"/>
<ItemData ItemOID="IT.QS.VISITDY" Value="169"/>
<ItemData ItemOID="IT.QS.QSDTC" Value="2004-03-30"/>
<ItemData ItemOID="IT.QS.QSDY" Value="168"/>
</ItemGroupData>
<ItemGroupData ItemGroupOID="IG.QSMM" data:ItemGroupDataSeq="31">
<ItemData ItemOID="IT.STUDYID" Value="CDISC01"/>
<ItemData ItemOID="IT.QS.DOMAIN" Value="QS"/>
<ItemData ItemOID="IT.USUBJID" Value="CDISC01.100014"/>
<ItemData ItemOID="IT.QS.QSSEQ" Value="90"/>
<ItemData ItemOID="IT.QS.QSTESTCD" Value="MMSEC"/>
<ItemData ItemOID="IT.QS.QSTEST" Value="Attention and Calculation"/>
<ItemData ItemOID="IT.QS.QSCAT" Value="MINI MENTAL STATE EXAMINATION (MMSE)"/>
<ItemData ItemOID="IT.QS.QSORRES" Value="0"/>
<ItemData ItemOID="IT.QS.QSSTRESC" Value="0"/>
<ItemData ItemOID="IT.QS.QSSTRESN" Value="0"/>
<ItemData ItemOID="IT.QS.VISITNUM" Value="1"/>
<ItemData ItemOID="IT.QS.VISIT" Value="SCREEN"/>
<ItemData ItemOID="IT.QS.VISITDY" Value="-13"/>
<ItemData ItemOID="IT.QS.QSDTC" Value="2003-10-06"/>
<ItemData ItemOID="IT.QS.QSDY" Value="-9"/>
</ItemGroupData>
<ItemGroupData ItemGroupOID="IG.QSMM" data:ItemGroupDataSeq="32">
<ItemData ItemOID="IT.STUDYID" Value="CDISC01"/>
<ItemData ItemOID="IT.QS.DOMAIN" Value="QS"/>
<ItemData ItemOID="IT.USUBJID" Value="CDISC01.100014"/>
<ItemData ItemOID="IT.QS.QSSEQ" Value="91"/>
<ItemData ItemOID="IT.QS.QSTESTCD" Value="MMSEC"/>
<ItemData ItemOID="IT.QS.QSTEST" Value="Attention and Calculation"/>
<ItemData ItemOID="IT.QS.QSCAT" Value="MINI MENTAL STATE EXAMINATION (MMSE)"/>
<ItemData ItemOID="IT.QS.QSORRES" Value="0"/>
<ItemData ItemOID="IT.QS.QSSTRESC" Value="0"/>
<ItemData ItemOID="IT.QS.QSSTRESN" Value="0"/>
<ItemData ItemOID="IT.QS.QSBLFL" Value="Y"/>
<ItemData ItemOID="IT.QS.VISITNUM" Value="2"/>
<ItemData ItemOID="IT.QS.VISIT" Value="BASELINE"/>
<ItemData ItemOID="IT.QS.VISITDY" Value="1"/>
<ItemData ItemOID="IT.QS.QSDTC" Value="2003-10-15"/>
<ItemData ItemOID="IT.QS.QSDY" Value="1"/>
</ItemGroupData>
<ItemGroupData ItemGroupOID="IG.QSMM" data:ItemGroupDataSeq="33">
<ItemData ItemOID="IT.STUDYID" Value="CDISC01"/>
<ItemData ItemOID="IT.QS.DOMAIN" Value="QS"/>
<ItemData ItemOID="IT.USUBJID" Value="CDISC01.100014"/>
<ItemData ItemOID="IT.QS.QSSEQ" Value="92"/>
<ItemData ItemOID="IT.QS.QSTESTCD" Value="MMSEC"/>
<ItemData ItemOID="IT.QS.QSTEST" Value="Attention and Calculation"/>
<ItemData ItemOID="IT.QS.QSCAT" Value="MINI MENTAL STATE EXAMINATION (MMSE)"/>
<ItemData ItemOID="IT.QS.QSORRES" Value="0"/>
<ItemData ItemOID="IT.QS.QSSTRESC" Value="0"/>
<ItemData ItemOID="IT.QS.QSSTRESN" Value="0"/>
<ItemData ItemOID="IT.QS.VISITNUM" Value="10"/>
<ItemData ItemOID="IT.QS.VISIT" Value="WEEK 24"/>
<ItemData ItemOID="IT.QS.VISITDY" Value="169"/>
<ItemData ItemOID="IT.QS.QSDTC" Value="2004-03-30"/>
<ItemData ItemOID="IT.QS.QSDY" Value="168"/>
</ItemGroupData>
<ItemGroupData ItemGroupOID="IG.QSMM" data:ItemGroupDataSeq="34">
<ItemData ItemOID="IT.STUDYID" Value="CDISC01"/>
<ItemData ItemOID="IT.QS.DOMAIN" Value="QS"/>
<ItemData ItemOID="IT.USUBJID" Value="CDISC01.100014"/>
<ItemData ItemOID="IT.QS.QSSEQ" Value="93"/>
<ItemData ItemOID="IT.QS.QSTESTCD" Value="MMSED"/>
<ItemData ItemOID="IT.QS.QSTEST" Value="Recall"/>
<ItemData ItemOID="IT.QS.QSCAT" Value="MINI MENTAL STATE EXAMINATION (MMSE)"/>
<ItemData ItemOID="IT.QS.QSORRES" Value="1"/>
<ItemData ItemOID="IT.QS.QSSTRESC" Value="1"/>
<ItemData ItemOID="IT.QS.QSSTRESN" Value="1"/>
<ItemData ItemOID="IT.QS.VISITNUM" Value="1"/>
<ItemData ItemOID="IT.QS.VISIT" Value="SCREEN"/>
<ItemData ItemOID="IT.QS.VISITDY" Value="-13"/>
<ItemData ItemOID="IT.QS.QSDTC" Value="2003-10-06"/>
<ItemData ItemOID="IT.QS.QSDY" Value="-9"/>
</ItemGroupData>
<ItemGroupData ItemGroupOID="IG.QSMM" data:ItemGroupDataSeq="35">
<ItemData ItemOID="IT.STUDYID" Value="CDISC01"/>
<ItemData ItemOID="IT.QS.DOMAIN" Value="QS"/>
<ItemData ItemOID="IT.USUBJID" Value="CDISC01.100014"/>
<ItemData ItemOID="IT.QS.QSSEQ" Value="94"/>
<ItemData ItemOID="IT.QS.QSTESTCD" Value="MMSED"/>
<ItemData ItemOID="IT.QS.QSTEST" Value="Recall"/>
<ItemData ItemOID="IT.QS.QSCAT" Value="MINI MENTAL STATE EXAMINATION (MMSE)"/>
<ItemData ItemOID="IT.QS.QSORRES" Value="3"/>
<ItemData ItemOID="IT.QS.QSSTRESC" Value="3"/>
<ItemData ItemOID="IT.QS.QSSTRESN" Value="3"/>
<ItemData ItemOID="IT.QS.QSBLFL" Value="Y"/>
<ItemData ItemOID="IT.QS.VISITNUM" Value="2"/>
<ItemData ItemOID="IT.QS.VISIT" Value="BASELINE"/>
<ItemData ItemOID="IT.QS.VISITDY" Value="1"/>
<ItemData ItemOID="IT.QS.QSDTC" Value="2003-10-15"/>
<ItemData ItemOID="IT.QS.QSDY" Value="1"/>
</ItemGroupData>
<ItemGroupData ItemGroupOID="IG.QSMM" data:ItemGroupDataSeq="36">
<ItemData ItemOID="IT.STUDYID" Value="CDISC01"/>
<ItemData ItemOID="IT.QS.DOMAIN" Value="QS"/>
<ItemData ItemOID="IT.USUBJID" Value="CDISC01.100014"/>
<ItemData ItemOID="IT.QS.QSSEQ" Value="95"/>
<ItemData ItemOID="IT.QS.QSTESTCD" Value="MMSED"/>
<ItemData ItemOID="IT.QS.QSTEST" Value="Recall"/>
<ItemData ItemOID="IT.QS.QSCAT" Value="MINI MENTAL STATE EXAMINATION (MMSE)"/>
<ItemData ItemOID="IT.QS.QSORRES" Value="0"/>
<ItemData ItemOID="IT.QS.QSSTRESC" Value="0"/>
<ItemData ItemOID="IT.QS.QSSTRESN" Value="0"/>
<ItemData ItemOID="IT.QS.VISITNUM" Value="10"/>
<ItemData ItemOID="IT.QS.VISIT" Value="WEEK 24"/>
<ItemData ItemOID="IT.QS.VISITDY" Value="169"/>
<ItemData ItemOID="IT.QS.QSDTC" Value="2004-03-30"/>
<ItemData ItemOID="IT.QS.QSDY" Value="168"/>
</ItemGroupData>
<ItemGroupData ItemGroupOID="IG.QSMM" data:ItemGroupDataSeq="37">
<ItemData ItemOID="IT.STUDYID" Value="CDISC01"/>
<ItemData ItemOID="IT.QS.DOMAIN" Value="QS"/>
<ItemData ItemOID="IT.USUBJID" Value="CDISC01.100014"/>
<ItemData ItemOID="IT.QS.QSSEQ" Value="96"/>
<ItemData ItemOID="IT.QS.QSTESTCD" Value="MMSEET"/>
<ItemData ItemOID="IT.QS.QSTEST" Value="Language"/>
<ItemData ItemOID="IT.QS.QSCAT" Value="MINI MENTAL STATE EXAMINATION (MMSE)"/>
<ItemData ItemOID="IT.QS.QSORRES" Value="8"/>
<ItemData ItemOID="IT.QS.QSSTRESC" Value="8"/>
<ItemData ItemOID="IT.QS.QSSTRESN" Value="8"/>
<ItemData ItemOID="IT.QS.VISITNUM" Value="1"/>
<ItemData ItemOID="IT.QS.VISIT" Value="SCREEN"/>
<ItemData ItemOID="IT.QS.VISITDY" Value="-13"/>
<ItemData ItemOID="IT.QS.QSDTC" Value="2003-10-06"/>
<ItemData ItemOID="IT.QS.QSDY" Value="-9"/>
</ItemGroupData>
<ItemGroupData ItemGroupOID="IG.QSMM" data:ItemGroupDataSeq="38">
<ItemData ItemOID="IT.STUDYID" Value="CDISC01"/>
<ItemData ItemOID="IT.QS.DOMAIN" Value="QS"/>
<ItemData ItemOID="IT.USUBJID" Value="CDISC01.100014"/>
<ItemData ItemOID="IT.QS.QSSEQ" Value="97"/>
<ItemData ItemOID="IT.QS.QSTESTCD" Value="MMSEET"/>
<ItemData ItemOID="IT.QS.QSTEST" Value="Language"/>
<ItemData ItemOID="IT.QS.QSCAT" Value="MINI MENTAL STATE EXAMINATION (MMSE)"/>
<ItemData ItemOID="IT.QS.QSORRES" Value="8"/>
<ItemData ItemOID="IT.QS.QSSTRESC" Value="8"/>
<ItemData ItemOID="IT.QS.QSSTRESN" Value="8"/>
<ItemData ItemOID="IT.QS.QSBLFL" Value="Y"/>
<ItemData ItemOID="IT.QS.VISITNUM" Value="2"/>
<ItemData ItemOID="IT.QS.VISIT" Value="BASELINE"/>
<ItemData ItemOID="IT.QS.VISITDY" Value="1"/>
<ItemData ItemOID="IT.QS.QSDTC" Value="2003-10-15"/>
<ItemData ItemOID="IT.QS.QSDY" Value="1"/>
</ItemGroupData>
<ItemGroupData ItemGroupOID="IG.QSMM" data:ItemGroupDataSeq="39">
<ItemData ItemOID="IT.STUDYID" Value="CDISC01"/>
<ItemData ItemOID="IT.QS.DOMAIN" Value="QS"/>
<ItemData ItemOID="IT.USUBJID" Value="CDISC01.100014"/>
<ItemData ItemOID="IT.QS.QSSEQ" Value="98"/>
<ItemData ItemOID="IT.QS.QSTESTCD" Value="MMSEET"/>
<ItemData ItemOID="IT.QS.QSTEST" Value="Language"/>
<ItemData ItemOID="IT.QS.QSCAT" Value="MINI MENTAL STATE EXAMINATION (MMSE)"/>
<ItemData ItemOID="IT.QS.QSORRES" Value="8"/>
<ItemData ItemOID="IT.QS.QSSTRESC" Value="8"/>
<ItemData ItemOID="IT.QS.QSSTRESN" Value="8"/>
<ItemData ItemOID="IT.QS.VISITNUM" Value="10"/>
<ItemData ItemOID="IT.QS.VISIT" Value="WEEK 24"/>
<ItemData ItemOID="IT.QS.VISITDY" Value="169"/>
<ItemData ItemOID="IT.QS.QSDTC" Value="2004-03-30"/>
<ItemData ItemOID="IT.QS.QSDY" Value="168"/>
</ItemGroupData>
<ItemGroupData ItemGroupOID="IG.QSMM" data:ItemGroupDataSeq="40">
<ItemData ItemOID="IT.STUDYID" Value="CDISC01"/>
<ItemData ItemOID="IT.QS.DOMAIN" Value="QS"/>
<ItemData ItemOID="IT.USUBJID" Value="CDISC01.100014"/>
<ItemData ItemOID="IT.QS.QSSEQ" Value="99"/>
<ItemData ItemOID="IT.QS.QSTESTCD" Value="MMSETOT"/>
<ItemData ItemOID="IT.QS.QSTEST" Value="Total Score"/>
<ItemData ItemOID="IT.QS.QSCAT" Value="MINI MENTAL STATE EXAMINATION (MMSE)"/>
<ItemData ItemOID="IT.QS.QSORRES" Value="16"/>
<ItemData ItemOID="IT.QS.QSSTRESC" Value="16"/>
<ItemData ItemOID="IT.QS.QSSTRESN" Value="16"/>
<ItemData ItemOID="IT.QS.VISITNUM" Value="1"/>
<ItemData ItemOID="IT.QS.VISIT" Value="SCREEN"/>
<ItemData ItemOID="IT.QS.VISITDY" Value="-13"/>
<ItemData ItemOID="IT.QS.QSDTC" Value="2003-10-06"/>
<ItemData ItemOID="IT.QS.QSDY" Value="-9"/>
</ItemGroupData>
<ItemGroupData ItemGroupOID="IG.QSMM" data:ItemGroupDataSeq="41">
<ItemData ItemOID="IT.STUDYID" Value="CDISC01"/>
<ItemData ItemOID="IT.QS.DOMAIN" Value="QS"/>
<ItemData ItemOID="IT.USUBJID" Value="CDISC01.100014"/>
<ItemData ItemOID="IT.QS.QSSEQ" Value="100"/>
<ItemData ItemOID="IT.QS.QSTESTCD" Value="MMSETOT"/>
<ItemData ItemOID="IT.QS.QSTEST" Value="Total Score"/>
<ItemData ItemOID="IT.QS.QSCAT" Value="MINI MENTAL STATE EXAMINATION (MMSE)"/>
<ItemData ItemOID="IT.QS.QSORRES" Value="20"/>
<ItemData ItemOID="IT.QS.QSSTRESC" Value="20"/>
<ItemData ItemOID="IT.QS.QSSTRESN" Value="20"/>
<ItemData ItemOID="IT.QS.QSBLFL" Value="Y"/>
<ItemData ItemOID="IT.QS.VISITNUM" Value="2"/>
<ItemData ItemOID="IT.QS.VISIT" Value="BASELINE"/>
<ItemData ItemOID="IT.QS.VISITDY" Value="1"/>
<ItemData ItemOID="IT.QS.QSDTC" Value="2003-10-15"/>
<ItemData ItemOID="IT.QS.QSDY" Value="1"/>
</ItemGroupData>
<ItemGroupData ItemGroupOID="IG.QSMM" data:ItemGroupDataSeq="42">
<ItemData ItemOID="IT.STUDYID" Value="CDISC01"/>
<ItemData ItemOID="IT.QS.DOMAIN" Value="QS"/>
<ItemData ItemOID="IT.USUBJID" Value="CDISC01.100014"/>
<ItemData ItemOID="IT.QS.QSSEQ" Value="101"/>
<ItemData ItemOID="IT.QS.QSTESTCD" Value="MMSETOT"/>
<ItemData ItemOID="IT.QS.QSTEST" Value="Total Score"/>
<ItemData ItemOID="IT.QS.QSCAT" Value="MINI MENTAL STATE EXAMINATION (MMSE)"/>
<ItemData ItemOID="IT.QS.QSORRES" Value="17"/>
<ItemData ItemOID="IT.QS.QSSTRESC" Value="17"/>
<ItemData ItemOID="IT.QS.QSSTRESN" Value="17"/>
<ItemData ItemOID="IT.QS.VISITNUM" Value="10"/>
<ItemData ItemOID="IT.QS.VISIT" Value="WEEK 24"/>
<ItemData ItemOID="IT.QS.VISITDY" Value="169"/>
<ItemData ItemOID="IT.QS.QSDTC" Value="2004-03-30"/>
<ItemData ItemOID="IT.QS.QSDY" Value="168"/>
</ItemGroupData>
<ItemGroupData ItemGroupOID="IG.QSMM" data:ItemGroupDataSeq="43">
<ItemData ItemOID="IT.STUDYID" Value="CDISC01"/>
<ItemData ItemOID="IT.QS.DOMAIN" Value="QS"/>
<ItemData ItemOID="IT.USUBJID" Value="CDISC01.200001"/>
<ItemData ItemOID="IT.QS.QSSEQ" Value="81"/>
<ItemData ItemOID="IT.QS.QSTESTCD" Value="MMSEA1"/>
<ItemData ItemOID="IT.QS.QSTEST" Value="Orientation time score"/>
<ItemData ItemOID="IT.QS.QSCAT" Value="MINI MENTAL STATE EXAMINATION (MMSE)"/>
<ItemData ItemOID="IT.QS.QSORRES" Value="2"/>
<ItemData ItemOID="IT.QS.QSSTRESC" Value="2"/>
<ItemData ItemOID="IT.QS.QSSTRESN" Value="2"/>
<ItemData ItemOID="IT.QS.VISITNUM" Value="1"/>
<ItemData ItemOID="IT.QS.VISIT" Value="SCREEN"/>
<ItemData ItemOID="IT.QS.VISITDY" Value="-13"/>
<ItemData ItemOID="IT.QS.QSDTC" Value="2003-09-09"/>
<ItemData ItemOID="IT.QS.QSDY" Value="-21"/>
</ItemGroupData>
<ItemGroupData ItemGroupOID="IG.QSMM" data:ItemGroupDataSeq="44">
<ItemData ItemOID="IT.STUDYID" Value="CDISC01"/>
<ItemData ItemOID="IT.QS.DOMAIN" Value="QS"/>
<ItemData ItemOID="IT.USUBJID" Value="CDISC01.200001"/>
<ItemData ItemOID="IT.QS.QSSEQ" Value="82"/>
<ItemData ItemOID="IT.QS.QSTESTCD" Value="MMSEA1"/>
<ItemData ItemOID="IT.QS.QSTEST" Value="Orientation time score"/>
<ItemData ItemOID="IT.QS.QSCAT" Value="MINI MENTAL STATE EXAMINATION (MMSE)"/>
<ItemData ItemOID="IT.QS.QSORRES" Value="3"/>
<ItemData ItemOID="IT.QS.QSSTRESC" Value="3"/>
<ItemData ItemOID="IT.QS.QSSTRESN" Value="3"/>
<ItemData ItemOID="IT.QS.QSBLFL" Value="Y"/>
<ItemData ItemOID="IT.QS.VISITNUM" Value="2"/>
<ItemData ItemOID="IT.QS.VISIT" Value="BASELINE"/>
<ItemData ItemOID="IT.QS.VISITDY" Value="1"/>
<ItemData ItemOID="IT.QS.QSDTC" Value="2003-09-30"/>
<ItemData ItemOID="IT.QS.QSDY" Value="1"/>
</ItemGroupData>
<ItemGroupData ItemGroupOID="IG.QSMM" data:ItemGroupDataSeq="45">
<ItemData ItemOID="IT.STUDYID" Value="CDISC01"/>
<ItemData ItemOID="IT.QS.DOMAIN" Value="QS"/>
<ItemData ItemOID="IT.USUBJID" Value="CDISC01.200001"/>
<ItemData ItemOID="IT.QS.QSSEQ" Value="83"/>
<ItemData ItemOID="IT.QS.QSTESTCD" Value="MMSEA1"/>
<ItemData ItemOID="IT.QS.QSTEST" Value="Orientation time score"/>
<ItemData ItemOID="IT.QS.QSCAT" Value="MINI MENTAL STATE EXAMINATION (MMSE)"/>
<ItemData ItemOID="IT.QS.QSORRES" Value="3"/>
<ItemData ItemOID="IT.QS.QSSTRESC" Value="3"/>
<ItemData ItemOID="IT.QS.QSSTRESN" Value="3"/>
<ItemData ItemOID="IT.QS.VISITNUM" Value="10"/>
<ItemData ItemOID="IT.QS.VISIT" Value="WEEK 24"/>
<ItemData ItemOID="IT.QS.VISITDY" Value="169"/>
<ItemData ItemOID="IT.QS.QSDTC" Value="2004-02-02"/>
<ItemData ItemOID="IT.QS.QSDY" Value="126"/>
</ItemGroupData>
<ItemGroupData ItemGroupOID="IG.QSMM" data:ItemGroupDataSeq="46">
<ItemData ItemOID="IT.STUDYID" Value="CDISC01"/>
<ItemData ItemOID="IT.QS.DOMAIN" Value="QS"/>
<ItemData ItemOID="IT.USUBJID" Value="CDISC01.200001"/>
<ItemData ItemOID="IT.QS.QSSEQ" Value="84"/>
<ItemData ItemOID="IT.QS.QSTESTCD" Value="MMSEA2"/>
<ItemData ItemOID="IT.QS.QSTEST" Value="Orientation place score"/>
<ItemData ItemOID="IT.QS.QSCAT" Value="MINI MENTAL STATE EXAMINATION (MMSE)"/>
<ItemData ItemOID="IT.QS.QSORRES" Value="2"/>
<ItemData ItemOID="IT.QS.QSSTRESC" Value="2"/>
<ItemData ItemOID="IT.QS.QSSTRESN" Value="2"/>
<ItemData ItemOID="IT.QS.VISITNUM" Value="1"/>
<ItemData ItemOID="IT.QS.VISIT" Value="SCREEN"/>
<ItemData ItemOID="IT.QS.VISITDY" Value="-13"/>
<ItemData ItemOID="IT.QS.QSDTC" Value="2003-09-09"/>
<ItemData ItemOID="IT.QS.QSDY" Value="-21"/>
</ItemGroupData>
<ItemGroupData ItemGroupOID="IG.QSMM" data:ItemGroupDataSeq="47">
<ItemData ItemOID="IT.STUDYID" Value="CDISC01"/>
<ItemData ItemOID="IT.QS.DOMAIN" Value="QS"/>
<ItemData ItemOID="IT.USUBJID" Value="CDISC01.200001"/>
<ItemData ItemOID="IT.QS.QSSEQ" Value="85"/>
<ItemData ItemOID="IT.QS.QSTESTCD" Value="MMSEA2"/>
<ItemData ItemOID="IT.QS.QSTEST" Value="Orientation place score"/>
<ItemData ItemOID="IT.QS.QSCAT" Value="MINI MENTAL STATE EXAMINATION (MMSE)"/>
<ItemData ItemOID="IT.QS.QSORRES" Value="3"/>
<ItemData ItemOID="IT.QS.QSSTRESC" Value="3"/>
<ItemData ItemOID="IT.QS.QSSTRESN" Value="3"/>
<ItemData ItemOID="IT.QS.QSBLFL" Value="Y"/>
<ItemData ItemOID="IT.QS.VISITNUM" Value="2"/>
<ItemData ItemOID="IT.QS.VISIT" Value="BASELINE"/>
<ItemData ItemOID="IT.QS.VISITDY" Value="1"/>
<ItemData ItemOID="IT.QS.QSDTC" Value="2003-09-30"/>
<ItemData ItemOID="IT.QS.QSDY" Value="1"/>
</ItemGroupData>
<ItemGroupData ItemGroupOID="IG.QSMM" data:ItemGroupDataSeq="48">
<ItemData ItemOID="IT.STUDYID" Value="CDISC01"/>
<ItemData ItemOID="IT.QS.DOMAIN" Value="QS"/>
<ItemData ItemOID="IT.USUBJID" Value="CDISC01.200001"/>
<ItemData ItemOID="IT.QS.QSSEQ" Value="86"/>
<ItemData ItemOID="IT.QS.QSTESTCD" Value="MMSEA2"/>
<ItemData ItemOID="IT.QS.QSTEST" Value="Orientation place score"/>
<ItemData ItemOID="IT.QS.QSCAT" Value="MINI MENTAL STATE EXAMINATION (MMSE)"/>
<ItemData ItemOID="IT.QS.QSORRES" Value="3"/>
<ItemData ItemOID="IT.QS.QSSTRESC" Value="3"/>
<ItemData ItemOID="IT.QS.QSSTRESN" Value="3"/>
<ItemData ItemOID="IT.QS.VISITNUM" Value="10"/>
<ItemData ItemOID="IT.QS.VISIT" Value="WEEK 24"/>
<ItemData ItemOID="IT.QS.VISITDY" Value="169"/>
<ItemData ItemOID="IT.QS.QSDTC" Value="2004-02-02"/>
<ItemData ItemOID="IT.QS.QSDY" Value="126"/>
</ItemGroupData>
<ItemGroupData ItemGroupOID="IG.QSMM" data:ItemGroupDataSeq="49">
<ItemData ItemOID="IT.STUDYID" Value="CDISC01"/>
<ItemData ItemOID="IT.QS.DOMAIN" Value="QS"/>
<ItemData ItemOID="IT.USUBJID" Value="CDISC01.200001"/>
<ItemData ItemOID="IT.QS.QSSEQ" Value="87"/>
<ItemData ItemOID="IT.QS.QSTESTCD" Value="MMSEB"/>
<ItemData ItemOID="IT.QS.QSTEST" Value="Registration"/>
<ItemData ItemOID="IT.QS.QSCAT" Value="MINI MENTAL STATE EXAMINATION (MMSE)"/>
<ItemData ItemOID="IT.QS.QSORRES" Value="3"/>
<ItemData ItemOID="IT.QS.QSSTRESC" Value="3"/>
<ItemData ItemOID="IT.QS.QSSTRESN" Value="3"/>
<ItemData ItemOID="IT.QS.VISITNUM" Value="1"/>
<ItemData ItemOID="IT.QS.VISIT" Value="SCREEN"/>
<ItemData ItemOID="IT.QS.VISITDY" Value="-13"/>
<ItemData ItemOID="IT.QS.QSDTC" Value="2003-09-09"/>
<ItemData ItemOID="IT.QS.QSDY" Value="-21"/>
</ItemGroupData>
<ItemGroupData ItemGroupOID="IG.QSMM" data:ItemGroupDataSeq="50">
<ItemData ItemOID="IT.STUDYID" Value="CDISC01"/>
<ItemData ItemOID="IT.QS.DOMAIN" Value="QS"/>
<ItemData ItemOID="IT.USUBJID" Value="CDISC01.200001"/>
<ItemData ItemOID="IT.QS.QSSEQ" Value="88"/>
<ItemData ItemOID="IT.QS.QSTESTCD" Value="MMSEB"/>
<ItemData ItemOID="IT.QS.QSTEST" Value="Registration"/>
<ItemData ItemOID="IT.QS.QSCAT" Value="MINI MENTAL STATE EXAMINATION (MMSE)"/>
<ItemData ItemOID="IT.QS.QSORRES" Value="3"/>
<ItemData ItemOID="IT.QS.QSSTRESC" Value="3"/>
<ItemData ItemOID="IT.QS.QSSTRESN" Value="3"/>
<ItemData ItemOID="IT.QS.QSBLFL" Value="Y"/>
<ItemData ItemOID="IT.QS.VISITNUM" Value="2"/>
<ItemData ItemOID="IT.QS.VISIT" Value="BASELINE"/>
<ItemData ItemOID="IT.QS.VISITDY" Value="1"/>
<ItemData ItemOID="IT.QS.QSDTC" Value="2003-09-30"/>
<ItemData ItemOID="IT.QS.QSDY" Value="1"/>
</ItemGroupData>
<ItemGroupData ItemGroupOID="IG.QSMM" data:ItemGroupDataSeq="51">
<ItemData ItemOID="IT.STUDYID" Value="CDISC01"/>
<ItemData ItemOID="IT.QS.DOMAIN" Value="QS"/>
<ItemData ItemOID="IT.USUBJID" Value="CDISC01.200001"/>
<ItemData ItemOID="IT.QS.QSSEQ" Value="89"/>
<ItemData ItemOID="IT.QS.QSTESTCD" Value="MMSEB"/>
<ItemData ItemOID="IT.QS.QSTEST" Value="Registration"/>
<ItemData ItemOID="IT.QS.QSCAT" Value="MINI MENTAL STATE EXAMINATION (MMSE)"/>
<ItemData ItemOID="IT.QS.QSORRES" Value="3"/>
<ItemData ItemOID="IT.QS.QSSTRESC" Value="3"/>
<ItemData ItemOID="IT.QS.QSSTRESN" Value="3"/>
<ItemData ItemOID="IT.QS.VISITNUM" Value="10"/>
<ItemData ItemOID="IT.QS.VISIT" Value="WEEK 24"/>
<ItemData ItemOID="IT.QS.VISITDY" Value="169"/>
<ItemData ItemOID="IT.QS.QSDTC" Value="2004-02-02"/>
<ItemData ItemOID="IT.QS.QSDY" Value="126"/>
</ItemGroupData>
<ItemGroupData ItemGroupOID="IG.QSMM" data:ItemGroupDataSeq="52">
<ItemData ItemOID="IT.STUDYID" Value="CDISC01"/>
<ItemData ItemOID="IT.QS.DOMAIN" Value="QS"/>
<ItemData ItemOID="IT.USUBJID" Value="CDISC01.200001"/>
<ItemData ItemOID="IT.QS.QSSEQ" Value="90"/>
<ItemData ItemOID="IT.QS.QSTESTCD" Value="MMSEC"/>
<ItemData ItemOID="IT.QS.QSTEST" Value="Attention and Calculation"/>
<ItemData ItemOID="IT.QS.QSCAT" Value="MINI MENTAL STATE EXAMINATION (MMSE)"/>
<ItemData ItemOID="IT.QS.QSORRES" Value="3"/>
<ItemData ItemOID="IT.QS.QSSTRESC" Value="3"/>
<ItemData ItemOID="IT.QS.QSSTRESN" Value="3"/>
<ItemData ItemOID="IT.QS.VISITNUM" Value="1"/>
<ItemData ItemOID="IT.QS.VISIT" Value="SCREEN"/>
<ItemData ItemOID="IT.QS.VISITDY" Value="-13"/>
<ItemData ItemOID="IT.QS.QSDTC" Value="2003-09-09"/>
<ItemData ItemOID="IT.QS.QSDY" Value="-21"/>
</ItemGroupData>
<ItemGroupData ItemGroupOID="IG.QSMM" data:ItemGroupDataSeq="53">
<ItemData ItemOID="IT.STUDYID" Value="CDISC01"/>
<ItemData ItemOID="IT.QS.DOMAIN" Value="QS"/>
<ItemData ItemOID="IT.USUBJID" Value="CDISC01.200001"/>
<ItemData ItemOID="IT.QS.QSSEQ" Value="91"/>
<ItemData ItemOID="IT.QS.QSTESTCD" Value="MMSEC"/>
<ItemData ItemOID="IT.QS.QSTEST" Value="Attention and Calculation"/>
<ItemData ItemOID="IT.QS.QSCAT" Value="MINI MENTAL STATE EXAMINATION (MMSE)"/>
<ItemData ItemOID="IT.QS.QSORRES" Value="2"/>
<ItemData ItemOID="IT.QS.QSSTRESC" Value="2"/>
<ItemData ItemOID="IT.QS.QSSTRESN" Value="2"/>
<ItemData ItemOID="IT.QS.QSBLFL" Value="Y"/>
<ItemData ItemOID="IT.QS.VISITNUM" Value="2"/>
<ItemData ItemOID="IT.QS.VISIT" Value="BASELINE"/>
<ItemData ItemOID="IT.QS.VISITDY" Value="1"/>
<ItemData ItemOID="IT.QS.QSDTC" Value="2003-09-30"/>
<ItemData ItemOID="IT.QS.QSDY" Value="1"/>
</ItemGroupData>
<ItemGroupData ItemGroupOID="IG.QSMM" data:ItemGroupDataSeq="54">
<ItemData ItemOID="IT.STUDYID" Value="CDISC01"/>
<ItemData ItemOID="IT.QS.DOMAIN" Value="QS"/>
<ItemData ItemOID="IT.USUBJID" Value="CDISC01.200001"/>
<ItemData ItemOID="IT.QS.QSSEQ" Value="92"/>
<ItemData ItemOID="IT.QS.QSTESTCD" Value="MMSEC"/>
<ItemData ItemOID="IT.QS.QSTEST" Value="Attention and Calculation"/>
<ItemData ItemOID="IT.QS.QSCAT" Value="MINI MENTAL STATE EXAMINATION (MMSE)"/>
<ItemData ItemOID="IT.QS.QSORRES" Value="4"/>
<ItemData ItemOID="IT.QS.QSSTRESC" Value="4"/>
<ItemData ItemOID="IT.QS.QSSTRESN" Value="4"/>
<ItemData ItemOID="IT.QS.VISITNUM" Value="10"/>
<ItemData ItemOID="IT.QS.VISIT" Value="WEEK 24"/>
<ItemData ItemOID="IT.QS.VISITDY" Value="169"/>
<ItemData ItemOID="IT.QS.QSDTC" Value="2004-02-02"/>
<ItemData ItemOID="IT.QS.QSDY" Value="126"/>
</ItemGroupData>
<ItemGroupData ItemGroupOID="IG.QSMM" data:ItemGroupDataSeq="55">
<ItemData ItemOID="IT.STUDYID" Value="CDISC01"/>
<ItemData ItemOID="IT.QS.DOMAIN" Value="QS"/>
<ItemData ItemOID="IT.USUBJID" Value="CDISC01.200001"/>
<ItemData ItemOID="IT.QS.QSSEQ" Value="93"/>
<ItemData ItemOID="IT.QS.QSTESTCD" Value="MMSED"/>
<ItemData ItemOID="IT.QS.QSTEST" Value="Recall"/>
<ItemData ItemOID="IT.QS.QSCAT" Value="MINI MENTAL STATE EXAMINATION (MMSE)"/>
<ItemData ItemOID="IT.QS.QSORRES" Value="0"/>
<ItemData ItemOID="IT.QS.QSSTRESC" Value="0"/>
<ItemData ItemOID="IT.QS.QSSTRESN" Value="0"/>
<ItemData ItemOID="IT.QS.VISITNUM" Value="1"/>
<ItemData ItemOID="IT.QS.VISIT" Value="SCREEN"/>
<ItemData ItemOID="IT.QS.VISITDY" Value="-13"/>
<ItemData ItemOID="IT.QS.QSDTC" Value="2003-09-09"/>
<ItemData ItemOID="IT.QS.QSDY" Value="-21"/>
</ItemGroupData>
<ItemGroupData ItemGroupOID="IG.QSMM" data:ItemGroupDataSeq="56">
<ItemData ItemOID="IT.STUDYID" Value="CDISC01"/>
<ItemData ItemOID="IT.QS.DOMAIN" Value="QS"/>
<ItemData ItemOID="IT.USUBJID" Value="CDISC01.200001"/>
<ItemData ItemOID="IT.QS.QSSEQ" Value="94"/>
<ItemData ItemOID="IT.QS.QSTESTCD" Value="MMSED"/>
<ItemData ItemOID="IT.QS.QSTEST" Value="Recall"/>
<ItemData ItemOID="IT.QS.QSCAT" Value="MINI MENTAL STATE EXAMINATION (MMSE)"/>
<ItemData ItemOID="IT.QS.QSORRES" Value="0"/>
<ItemData ItemOID="IT.QS.QSSTRESC" Value="0"/>
<ItemData ItemOID="IT.QS.QSSTRESN" Value="0"/>
<ItemData ItemOID="IT.QS.QSBLFL" Value="Y"/>
<ItemData ItemOID="IT.QS.VISITNUM" Value="2"/>
<ItemData ItemOID="IT.QS.VISIT" Value="BASELINE"/>
<ItemData ItemOID="IT.QS.VISITDY" Value="1"/>
<ItemData ItemOID="IT.QS.QSDTC" Value="2003-09-30"/>
<ItemData ItemOID="IT.QS.QSDY" Value="1"/>
</ItemGroupData>
<ItemGroupData ItemGroupOID="IG.QSMM" data:ItemGroupDataSeq="57">
<ItemData ItemOID="IT.STUDYID" Value="CDISC01"/>
<ItemData ItemOID="IT.QS.DOMAIN" Value="QS"/>
<ItemData ItemOID="IT.USUBJID" Value="CDISC01.200001"/>
<ItemData ItemOID="IT.QS.QSSEQ" Value="95"/>
<ItemData ItemOID="IT.QS.QSTESTCD" Value="MMSED"/>
<ItemData ItemOID="IT.QS.QSTEST" Value="Recall"/>
<ItemData ItemOID="IT.QS.QSCAT" Value="MINI MENTAL STATE EXAMINATION (MMSE)"/>
<ItemData ItemOID="IT.QS.QSORRES" Value="0"/>
<ItemData ItemOID="IT.QS.QSSTRESC" Value="0"/>
<ItemData ItemOID="IT.QS.QSSTRESN" Value="0"/>
<ItemData ItemOID="IT.QS.VISITNUM" Value="10"/>
<ItemData ItemOID="IT.QS.VISIT" Value="WEEK 24"/>
<ItemData ItemOID="IT.QS.VISITDY" Value="169"/>
<ItemData ItemOID="IT.QS.QSDTC" Value="2004-02-02"/>
<ItemData ItemOID="IT.QS.QSDY" Value="126"/>
</ItemGroupData>
<ItemGroupData ItemGroupOID="IG.QSMM" data:ItemGroupDataSeq="58">
<ItemData ItemOID="IT.STUDYID" Value="CDISC01"/>
<ItemData ItemOID="IT.QS.DOMAIN" Value="QS"/>
<ItemData ItemOID="IT.USUBJID" Value="CDISC01.200001"/>
<ItemData ItemOID="IT.QS.QSSEQ" Value="96"/>
<ItemData ItemOID="IT.QS.QSTESTCD" Value="MMSEET"/>
<ItemData ItemOID="IT.QS.QSTEST" Value="Language"/>
<ItemData ItemOID="IT.QS.QSCAT" Value="MINI MENTAL STATE EXAMINATION (MMSE)"/>
<ItemData ItemOID="IT.QS.QSORRES" Value="6"/>
<ItemData ItemOID="IT.QS.QSSTRESC" Value="6"/>
<ItemData ItemOID="IT.QS.QSSTRESN" Value="6"/>
<ItemData ItemOID="IT.QS.VISITNUM" Value="1"/>
<ItemData ItemOID="IT.QS.VISIT" Value="SCREEN"/>
<ItemData ItemOID="IT.QS.VISITDY" Value="-13"/>
<ItemData ItemOID="IT.QS.QSDTC" Value="2003-09-09"/>
<ItemData ItemOID="IT.QS.QSDY" Value="-21"/>
</ItemGroupData>
<ItemGroupData ItemGroupOID="IG.QSMM" data:ItemGroupDataSeq="59">
<ItemData ItemOID="IT.STUDYID" Value="CDISC01"/>
<ItemData ItemOID="IT.QS.DOMAIN" Value="QS"/>
<ItemData ItemOID="IT.USUBJID" Value="CDISC01.200001"/>
<ItemData ItemOID="IT.QS.QSSEQ" Value="97"/>
<ItemData ItemOID="IT.QS.QSTESTCD" Value="MMSEET"/>
<ItemData ItemOID="IT.QS.QSTEST" Value="Language"/>
<ItemData ItemOID="IT.QS.QSCAT" Value="MINI MENTAL STATE EXAMINATION (MMSE)"/>
<ItemData ItemOID="IT.QS.QSORRES" Value="7"/>
<ItemData ItemOID="IT.QS.QSSTRESC" Value="7"/>
<ItemData ItemOID="IT.QS.QSSTRESN" Value="7"/>
<ItemData ItemOID="IT.QS.QSBLFL" Value="Y"/>
<ItemData ItemOID="IT.QS.VISITNUM" Value="2"/>
<ItemData ItemOID="IT.QS.VISIT" Value="BASELINE"/>
<ItemData ItemOID="IT.QS.VISITDY" Value="1"/>
<ItemData ItemOID="IT.QS.QSDTC" Value="2003-09-30"/>
<ItemData ItemOID="IT.QS.QSDY" Value="1"/>
</ItemGroupData>
<ItemGroupData ItemGroupOID="IG.QSMM" data:ItemGroupDataSeq="60">
<ItemData ItemOID="IT.STUDYID" Value="CDISC01"/>
<ItemData ItemOID="IT.QS.DOMAIN" Value="QS"/>
<ItemData ItemOID="IT.USUBJID" Value="CDISC01.200001"/>
<ItemData ItemOID="IT.QS.QSSEQ" Value="98"/>
<ItemData ItemOID="IT.QS.QSTESTCD" Value="MMSEET"/>
<ItemData ItemOID="IT.QS.QSTEST" Value="Language"/>
<ItemData ItemOID="IT.QS.QSCAT" Value="MINI MENTAL STATE EXAMINATION (MMSE)"/>
<ItemData ItemOID="IT.QS.QSORRES" Value="8"/>
<ItemData ItemOID="IT.QS.QSSTRESC" Value="8"/>
<ItemData ItemOID="IT.QS.QSSTRESN" Value="8"/>
<ItemData ItemOID="IT.QS.VISITNUM" Value="10"/>
<ItemData ItemOID="IT.QS.VISIT" Value="WEEK 24"/>
<ItemData ItemOID="IT.QS.VISITDY" Value="169"/>
<ItemData ItemOID="IT.QS.QSDTC" Value="2004-02-02"/>
<ItemData ItemOID="IT.QS.QSDY" Value="126"/>
</ItemGroupData>
<ItemGroupData ItemGroupOID="IG.QSMM" data:ItemGroupDataSeq="61">
<ItemData ItemOID="IT.STUDYID" Value="CDISC01"/>
<ItemData ItemOID="IT.QS.DOMAIN" Value="QS"/>
<ItemData ItemOID="IT.USUBJID" Value="CDISC01.200001"/>
<ItemData ItemOID="IT.QS.QSSEQ" Value="99"/>
<ItemData ItemOID="IT.QS.QSTESTCD" Value="MMSETOT"/>
<ItemData ItemOID="IT.QS.QSTEST" Value="Total Score"/>
<ItemData ItemOID="IT.QS.QSCAT" Value="MINI MENTAL STATE EXAMINATION (MMSE)"/>
<ItemData ItemOID="IT.QS.QSORRES" Value="16"/>
<ItemData ItemOID="IT.QS.QSSTRESC" Value="16"/>
<ItemData ItemOID="IT.QS.QSSTRESN" Value="16"/>
<ItemData ItemOID="IT.QS.VISITNUM" Value="1"/>
<ItemData ItemOID="IT.QS.VISIT" Value="SCREEN"/>
<ItemData ItemOID="IT.QS.VISITDY" Value="-13"/>
<ItemData ItemOID="IT.QS.QSDTC" Value="2003-09-09"/>
<ItemData ItemOID="IT.QS.QSDY" Value="-21"/>
</ItemGroupData>
<ItemGroupData ItemGroupOID="IG.QSMM" data:ItemGroupDataSeq="62">
<ItemData ItemOID="IT.STUDYID" Value="CDISC01"/>
<ItemData ItemOID="IT.QS.DOMAIN" Value="QS"/>
<ItemData ItemOID="IT.USUBJID" Value="CDISC01.200001"/>
<ItemData ItemOID="IT.QS.QSSEQ" Value="100"/>
<ItemData ItemOID="IT.QS.QSTESTCD" Value="MMSETOT"/>
<ItemData ItemOID="IT.QS.QSTEST" Value="Total Score"/>
<ItemData ItemOID="IT.QS.QSCAT" Value="MINI MENTAL STATE EXAMINATION (MMSE)"/>
<ItemData ItemOID="IT.QS.QSORRES" Value="18"/>
<ItemData ItemOID="IT.QS.QSSTRESC" Value="18"/>
<ItemData ItemOID="IT.QS.QSSTRESN" Value="18"/>
<ItemData ItemOID="IT.QS.QSBLFL" Value="Y"/>
<ItemData ItemOID="IT.QS.VISITNUM" Value="2"/>
<ItemData ItemOID="IT.QS.VISIT" Value="BASELINE"/>
<ItemData ItemOID="IT.QS.VISITDY" Value="1"/>
<ItemData ItemOID="IT.QS.QSDTC" Value="2003-09-30"/>
<ItemData ItemOID="IT.QS.QSDY" Value="1"/>
</ItemGroupData>
<ItemGroupData ItemGroupOID="IG.QSMM" data:ItemGroupDataSeq="63">
<ItemData ItemOID="IT.STUDYID" Value="CDISC01"/>
<ItemData ItemOID="IT.QS.DOMAIN" Value="QS"/>
<ItemData ItemOID="IT.USUBJID" Value="CDISC01.200001"/>
<ItemData ItemOID="IT.QS.QSSEQ" Value="101"/>
<ItemData ItemOID="IT.QS.QSTESTCD" Value="MMSETOT"/>
<ItemData ItemOID="IT.QS.QSTEST" Value="Total Score"/>
<ItemData ItemOID="IT.QS.QSCAT" Value="MINI MENTAL STATE EXAMINATION (MMSE)"/>
<ItemData ItemOID="IT.QS.QSORRES" Value="21"/>
<ItemData ItemOID="IT.QS.QSSTRESC" Value="21"/>
<ItemData ItemOID="IT.QS.QSSTRESN" Value="21"/>
<ItemData ItemOID="IT.QS.VISITNUM" Value="10"/>
<ItemData ItemOID="IT.QS.VISIT" Value="WEEK 24"/>
<ItemData ItemOID="IT.QS.VISITDY" Value="169"/>
<ItemData ItemOID="IT.QS.QSDTC" Value="2004-02-02"/>
<ItemData ItemOID="IT.QS.QSDY" Value="126"/>
</ItemGroupData>
<ItemGroupData ItemGroupOID="IG.QSMM" data:ItemGroupDataSeq="64">
<ItemData ItemOID="IT.STUDYID" Value="CDISC01"/>
<ItemData ItemOID="IT.QS.DOMAIN" Value="QS"/>
<ItemData ItemOID="IT.USUBJID" Value="CDISC01.200002"/>
<ItemData ItemOID="IT.QS.QSSEQ" Value="81"/>
<ItemData ItemOID="IT.QS.QSTESTCD" Value="MMSEA1"/>
<ItemData ItemOID="IT.QS.QSTEST" Value="Orientation time score"/>
<ItemData ItemOID="IT.QS.QSCAT" Value="MINI MENTAL STATE EXAMINATION (MMSE)"/>
<ItemData ItemOID="IT.QS.QSORRES" Value="1"/>
<ItemData ItemOID="IT.QS.QSSTRESC" Value="1"/>
<ItemData ItemOID="IT.QS.QSSTRESN" Value="1"/>
<ItemData ItemOID="IT.QS.VISITNUM" Value="1"/>
<ItemData ItemOID="IT.QS.VISIT" Value="SCREEN"/>
<ItemData ItemOID="IT.QS.VISITDY" Value="-13"/>
<ItemData ItemOID="IT.QS.QSDTC" Value="2003-09-18"/>
<ItemData ItemOID="IT.QS.QSDY" Value="-22"/>
</ItemGroupData>
<ItemGroupData ItemGroupOID="IG.QSMM" data:ItemGroupDataSeq="65">
<ItemData ItemOID="IT.STUDYID" Value="CDISC01"/>
<ItemData ItemOID="IT.QS.DOMAIN" Value="QS"/>
<ItemData ItemOID="IT.USUBJID" Value="CDISC01.200002"/>
<ItemData ItemOID="IT.QS.QSSEQ" Value="82"/>
<ItemData ItemOID="IT.QS.QSTESTCD" Value="MMSEA1"/>
<ItemData ItemOID="IT.QS.QSTEST" Value="Orientation time score"/>
<ItemData ItemOID="IT.QS.QSCAT" Value="MINI MENTAL STATE EXAMINATION (MMSE)"/>
<ItemData ItemOID="IT.QS.QSORRES" Value="3"/>
<ItemData ItemOID="IT.QS.QSSTRESC" Value="3"/>
<ItemData ItemOID="IT.QS.QSSTRESN" Value="3"/>
<ItemData ItemOID="IT.QS.QSBLFL" Value="Y"/>
<ItemData ItemOID="IT.QS.VISITNUM" Value="2"/>
<ItemData ItemOID="IT.QS.VISIT" Value="BASELINE"/>
<ItemData ItemOID="IT.QS.VISITDY" Value="1"/>
<ItemData ItemOID="IT.QS.QSDTC" Value="2003-10-10"/>
<ItemData ItemOID="IT.QS.QSDY" Value="1"/>
</ItemGroupData>
<ItemGroupData ItemGroupOID="IG.QSMM" data:ItemGroupDataSeq="66">
<ItemData ItemOID="IT.STUDYID" Value="CDISC01"/>
<ItemData ItemOID="IT.QS.DOMAIN" Value="QS"/>
<ItemData ItemOID="IT.USUBJID" Value="CDISC01.200002"/>
<ItemData ItemOID="IT.QS.QSSEQ" Value="83"/>
<ItemData ItemOID="IT.QS.QSTESTCD" Value="MMSEA1"/>
<ItemData ItemOID="IT.QS.QSTEST" Value="Orientation time score"/>
<ItemData ItemOID="IT.QS.QSCAT" Value="MINI MENTAL STATE EXAMINATION (MMSE)"/>
<ItemData ItemOID="IT.QS.QSORRES" Value="0"/>
<ItemData ItemOID="IT.QS.QSSTRESC" Value="0"/>
<ItemData ItemOID="IT.QS.QSSTRESN" Value="0"/>
<ItemData ItemOID="IT.QS.VISITNUM" Value="10"/>
<ItemData ItemOID="IT.QS.VISIT" Value="WEEK 24"/>
<ItemData ItemOID="IT.QS.VISITDY" Value="169"/>
<ItemData ItemOID="IT.QS.QSDTC" Value="2004-03-29"/>
<ItemData ItemOID="IT.QS.QSDY" Value="172"/>
</ItemGroupData>
<ItemGroupData ItemGroupOID="IG.QSMM" data:ItemGroupDataSeq="67">
<ItemData ItemOID="IT.STUDYID" Value="CDISC01"/>
<ItemData ItemOID="IT.QS.DOMAIN" Value="QS"/>
<ItemData ItemOID="IT.USUBJID" Value="CDISC01.200002"/>
<ItemData ItemOID="IT.QS.QSSEQ" Value="84"/>
<ItemData ItemOID="IT.QS.QSTESTCD" Value="MMSEA2"/>
<ItemData ItemOID="IT.QS.QSTEST" Value="Orientation place score"/>
<ItemData ItemOID="IT.QS.QSCAT" Value="MINI MENTAL STATE EXAMINATION (MMSE)"/>
<ItemData ItemOID="IT.QS.QSORRES" Value="4"/>
<ItemData ItemOID="IT.QS.QSSTRESC" Value="4"/>
<ItemData ItemOID="IT.QS.QSSTRESN" Value="4"/>
<ItemData ItemOID="IT.QS.VISITNUM" Value="1"/>
<ItemData ItemOID="IT.QS.VISIT" Value="SCREEN"/>
<ItemData ItemOID="IT.QS.VISITDY" Value="-13"/>
<ItemData ItemOID="IT.QS.QSDTC" Value="2003-09-18"/>
<ItemData ItemOID="IT.QS.QSDY" Value="-22"/>
</ItemGroupData>
<ItemGroupData ItemGroupOID="IG.QSMM" data:ItemGroupDataSeq="68">
<ItemData ItemOID="IT.STUDYID" Value="CDISC01"/>
<ItemData ItemOID="IT.QS.DOMAIN" Value="QS"/>
<ItemData ItemOID="IT.USUBJID" Value="CDISC01.200002"/>
<ItemData ItemOID="IT.QS.QSSEQ" Value="85"/>
<ItemData ItemOID="IT.QS.QSTESTCD" Value="MMSEA2"/>
<ItemData ItemOID="IT.QS.QSTEST" Value="Orientation place score"/>
<ItemData ItemOID="IT.QS.QSCAT" Value="MINI MENTAL STATE EXAMINATION (MMSE)"/>
<ItemData ItemOID="IT.QS.QSORRES" Value="4"/>
<ItemData ItemOID="IT.QS.QSSTRESC" Value="4"/>
<ItemData ItemOID="IT.QS.QSSTRESN" Value="4"/>
<ItemData ItemOID="IT.QS.QSBLFL" Value="Y"/>
<ItemData ItemOID="IT.QS.VISITNUM" Value="2"/>
<ItemData ItemOID="IT.QS.VISIT" Value="BASELINE"/>
<ItemData ItemOID="IT.QS.VISITDY" Value="1"/>
<ItemData ItemOID="IT.QS.QSDTC" Value="2003-10-10"/>
<ItemData ItemOID="IT.QS.QSDY" Value="1"/>
</ItemGroupData>
<ItemGroupData ItemGroupOID="IG.QSMM" data:ItemGroupDataSeq="69">
<ItemData ItemOID="IT.STUDYID" Value="CDISC01"/>
<ItemData ItemOID="IT.QS.DOMAIN" Value="QS"/>
<ItemData ItemOID="IT.USUBJID" Value="CDISC01.200002"/>
<ItemData ItemOID="IT.QS.QSSEQ" Value="86"/>
<ItemData ItemOID="IT.QS.QSTESTCD" Value="MMSEA2"/>
<ItemData ItemOID="IT.QS.QSTEST" Value="Orientation place score"/>
<ItemData ItemOID="IT.QS.QSCAT" Value="MINI MENTAL STATE EXAMINATION (MMSE)"/>
<ItemData ItemOID="IT.QS.QSORRES" Value="4"/>
<ItemData ItemOID="IT.QS.QSSTRESC" Value="4"/>
<ItemData ItemOID="IT.QS.QSSTRESN" Value="4"/>
<ItemData ItemOID="IT.QS.VISITNUM" Value="10"/>
<ItemData ItemOID="IT.QS.VISIT" Value="WEEK 24"/>
<ItemData ItemOID="IT.QS.VISITDY" Value="169"/>
<ItemData ItemOID="IT.QS.QSDTC" Value="2004-03-29"/>
<ItemData ItemOID="IT.QS.QSDY" Value="172"/>
</ItemGroupData>
<ItemGroupData ItemGroupOID="IG.QSMM" data:ItemGroupDataSeq="70">
<ItemData ItemOID="IT.STUDYID" Value="CDISC01"/>
<ItemData ItemOID="IT.QS.DOMAIN" Value="QS"/>
<ItemData ItemOID="IT.USUBJID" Value="CDISC01.200002"/>
<ItemData ItemOID="IT.QS.QSSEQ" Value="87"/>
<ItemData ItemOID="IT.QS.QSTESTCD" Value="MMSEB"/>
<ItemData ItemOID="IT.QS.QSTEST" Value="Registration"/>
<ItemData ItemOID="IT.QS.QSCAT" Value="MINI MENTAL STATE EXAMINATION (MMSE)"/>
<ItemData ItemOID="IT.QS.QSORRES" Value="3"/>
<ItemData ItemOID="IT.QS.QSSTRESC" Value="3"/>
<ItemData ItemOID="IT.QS.QSSTRESN" Value="3"/>
<ItemData ItemOID="IT.QS.VISITNUM" Value="1"/>
<ItemData ItemOID="IT.QS.VISIT" Value="SCREEN"/>
<ItemData ItemOID="IT.QS.VISITDY" Value="-13"/>
<ItemData ItemOID="IT.QS.QSDTC" Value="2003-09-18"/>
<ItemData ItemOID="IT.QS.QSDY" Value="-22"/>
</ItemGroupData>
<ItemGroupData ItemGroupOID="IG.QSMM" data:ItemGroupDataSeq="71">
<ItemData ItemOID="IT.STUDYID" Value="CDISC01"/>
<ItemData ItemOID="IT.QS.DOMAIN" Value="QS"/>
<ItemData ItemOID="IT.USUBJID" Value="CDISC01.200002"/>
<ItemData ItemOID="IT.QS.QSSEQ" Value="88"/>
<ItemData ItemOID="IT.QS.QSTESTCD" Value="MMSEB"/>
<ItemData ItemOID="IT.QS.QSTEST" Value="Registration"/>
<ItemData ItemOID="IT.QS.QSCAT" Value="MINI MENTAL STATE EXAMINATION (MMSE)"/>
<ItemData ItemOID="IT.QS.QSORRES" Value="3"/>
<ItemData ItemOID="IT.QS.QSSTRESC" Value="3"/>
<ItemData ItemOID="IT.QS.QSSTRESN" Value="3"/>
<ItemData ItemOID="IT.QS.QSBLFL" Value="Y"/>
<ItemData ItemOID="IT.QS.VISITNUM" Value="2"/>
<ItemData ItemOID="IT.QS.VISIT" Value="BASELINE"/>
<ItemData ItemOID="IT.QS.VISITDY" Value="1"/>
<ItemData ItemOID="IT.QS.QSDTC" Value="2003-10-10"/>
<ItemData ItemOID="IT.QS.QSDY" Value="1"/>
</ItemGroupData>
<ItemGroupData ItemGroupOID="IG.QSMM" data:ItemGroupDataSeq="72">
<ItemData ItemOID="IT.STUDYID" Value="CDISC01"/>
<ItemData ItemOID="IT.QS.DOMAIN" Value="QS"/>
<ItemData ItemOID="IT.USUBJID" Value="CDISC01.200002"/>
<ItemData ItemOID="IT.QS.QSSEQ" Value="89"/>
<ItemData ItemOID="IT.QS.QSTESTCD" Value="MMSEB"/>
<ItemData ItemOID="IT.QS.QSTEST" Value="Registration"/>
<ItemData ItemOID="IT.QS.QSCAT" Value="MINI MENTAL STATE EXAMINATION (MMSE)"/>
<ItemData ItemOID="IT.QS.QSORRES" Value="3"/>
<ItemData ItemOID="IT.QS.QSSTRESC" Value="3"/>
<ItemData ItemOID="IT.QS.QSSTRESN" Value="3"/>
<ItemData ItemOID="IT.QS.VISITNUM" Value="10"/>
<ItemData ItemOID="IT.QS.VISIT" Value="WEEK 24"/>
<ItemData ItemOID="IT.QS.VISITDY" Value="169"/>
<ItemData ItemOID="IT.QS.QSDTC" Value="2004-03-29"/>
<ItemData ItemOID="IT.QS.QSDY" Value="172"/>
</ItemGroupData>
<ItemGroupData ItemGroupOID="IG.QSMM" data:ItemGroupDataSeq="73">
<ItemData ItemOID="IT.STUDYID" Value="CDISC01"/>
<ItemData ItemOID="IT.QS.DOMAIN" Value="QS"/>
<ItemData ItemOID="IT.USUBJID" Value="CDISC01.200002"/>
<ItemData ItemOID="IT.QS.QSSEQ" Value="90"/>
<ItemData ItemOID="IT.QS.QSTESTCD" Value="MMSEC"/>
<ItemData ItemOID="IT.QS.QSTEST" Value="Attention and Calculation"/>
<ItemData ItemOID="IT.QS.QSCAT" Value="MINI MENTAL STATE EXAMINATION (MMSE)"/>
<ItemData ItemOID="IT.QS.QSORRES" Value="2"/>
<ItemData ItemOID="IT.QS.QSSTRESC" Value="2"/>
<ItemData ItemOID="IT.QS.QSSTRESN" Value="2"/>
<ItemData ItemOID="IT.QS.VISITNUM" Value="1"/>
<ItemData ItemOID="IT.QS.VISIT" Value="SCREEN"/>
<ItemData ItemOID="IT.QS.VISITDY" Value="-13"/>
<ItemData ItemOID="IT.QS.QSDTC" Value="2003-09-18"/>
<ItemData ItemOID="IT.QS.QSDY" Value="-22"/>
</ItemGroupData>
<ItemGroupData ItemGroupOID="IG.QSMM" data:ItemGroupDataSeq="74">
<ItemData ItemOID="IT.STUDYID" Value="CDISC01"/>
<ItemData ItemOID="IT.QS.DOMAIN" Value="QS"/>
<ItemData ItemOID="IT.USUBJID" Value="CDISC01.200002"/>
<ItemData ItemOID="IT.QS.QSSEQ" Value="91"/>
<ItemData ItemOID="IT.QS.QSTESTCD" Value="MMSEC"/>
<ItemData ItemOID="IT.QS.QSTEST" Value="Attention and Calculation"/>
<ItemData ItemOID="IT.QS.QSCAT" Value="MINI MENTAL STATE EXAMINATION (MMSE)"/>
<ItemData ItemOID="IT.QS.QSORRES" Value="2"/>
<ItemData ItemOID="IT.QS.QSSTRESC" Value="2"/>
<ItemData ItemOID="IT.QS.QSSTRESN" Value="2"/>
<ItemData ItemOID="IT.QS.QSBLFL" Value="Y"/>
<ItemData ItemOID="IT.QS.VISITNUM" Value="2"/>
<ItemData ItemOID="IT.QS.VISIT" Value="BASELINE"/>
<ItemData ItemOID="IT.QS.VISITDY" Value="1"/>
<ItemData ItemOID="IT.QS.QSDTC" Value="2003-10-10"/>
<ItemData ItemOID="IT.QS.QSDY" Value="1"/>
</ItemGroupData>
<ItemGroupData ItemGroupOID="IG.QSMM" data:ItemGroupDataSeq="75">
<ItemData ItemOID="IT.STUDYID" Value="CDISC01"/>
<ItemData ItemOID="IT.QS.DOMAIN" Value="QS"/>
<ItemData ItemOID="IT.USUBJID" Value="CDISC01.200002"/>
<ItemData ItemOID="IT.QS.QSSEQ" Value="92"/>
<ItemData ItemOID="IT.QS.QSTESTCD" Value="MMSEC"/>
<ItemData ItemOID="IT.QS.QSTEST" Value="Attention and Calculation"/>
<ItemData ItemOID="IT.QS.QSCAT" Value="MINI MENTAL STATE EXAMINATION (MMSE)"/>
<ItemData ItemOID="IT.QS.QSORRES" Value="5"/>
<ItemData ItemOID="IT.QS.QSSTRESC" Value="5"/>
<ItemData ItemOID="IT.QS.QSSTRESN" Value="5"/>
<ItemData ItemOID="IT.QS.VISITNUM" Value="10"/>
<ItemData ItemOID="IT.QS.VISIT" Value="WEEK 24"/>
<ItemData ItemOID="IT.QS.VISITDY" Value="169"/>
<ItemData ItemOID="IT.QS.QSDTC" Value="2004-03-29"/>
<ItemData ItemOID="IT.QS.QSDY" Value="172"/>
</ItemGroupData>
<ItemGroupData ItemGroupOID="IG.QSMM" data:ItemGroupDataSeq="76">
<ItemData ItemOID="IT.STUDYID" Value="CDISC01"/>
<ItemData ItemOID="IT.QS.DOMAIN" Value="QS"/>
<ItemData ItemOID="IT.USUBJID" Value="CDISC01.200002"/>
<ItemData ItemOID="IT.QS.QSSEQ" Value="93"/>
<ItemData ItemOID="IT.QS.QSTESTCD" Value="MMSED"/>
<ItemData ItemOID="IT.QS.QSTEST" Value="Recall"/>
<ItemData ItemOID="IT.QS.QSCAT" Value="MINI MENTAL STATE EXAMINATION (MMSE)"/>
<ItemData ItemOID="IT.QS.QSORRES" Value="0"/>
<ItemData ItemOID="IT.QS.QSSTRESC" Value="0"/>
<ItemData ItemOID="IT.QS.QSSTRESN" Value="0"/>
<ItemData ItemOID="IT.QS.VISITNUM" Value="1"/>
<ItemData ItemOID="IT.QS.VISIT" Value="SCREEN"/>
<ItemData ItemOID="IT.QS.VISITDY" Value="-13"/>
<ItemData ItemOID="IT.QS.QSDTC" Value="2003-09-18"/>
<ItemData ItemOID="IT.QS.QSDY" Value="-22"/>
</ItemGroupData>
<ItemGroupData ItemGroupOID="IG.QSMM" data:ItemGroupDataSeq="77">
<ItemData ItemOID="IT.STUDYID" Value="CDISC01"/>
<ItemData ItemOID="IT.QS.DOMAIN" Value="QS"/>
<ItemData ItemOID="IT.USUBJID" Value="CDISC01.200002"/>
<ItemData ItemOID="IT.QS.QSSEQ" Value="94"/>
<ItemData ItemOID="IT.QS.QSTESTCD" Value="MMSED"/>
<ItemData ItemOID="IT.QS.QSTEST" Value="Recall"/>
<ItemData ItemOID="IT.QS.QSCAT" Value="MINI MENTAL STATE EXAMINATION (MMSE)"/>
<ItemData ItemOID="IT.QS.QSORRES" Value="0"/>
<ItemData ItemOID="IT.QS.QSSTRESC" Value="0"/>
<ItemData ItemOID="IT.QS.QSSTRESN" Value="0"/>
<ItemData ItemOID="IT.QS.QSBLFL" Value="Y"/>
<ItemData ItemOID="IT.QS.VISITNUM" Value="2"/>
<ItemData ItemOID="IT.QS.VISIT" Value="BASELINE"/>
<ItemData ItemOID="IT.QS.VISITDY" Value="1"/>
<ItemData ItemOID="IT.QS.QSDTC" Value="2003-10-10"/>
<ItemData ItemOID="IT.QS.QSDY" Value="1"/>
</ItemGroupData>
<ItemGroupData ItemGroupOID="IG.QSMM" data:ItemGroupDataSeq="78">
<ItemData ItemOID="IT.STUDYID" Value="CDISC01"/>
<ItemData ItemOID="IT.QS.DOMAIN" Value="QS"/>
<ItemData ItemOID="IT.USUBJID" Value="CDISC01.200002"/>
<ItemData ItemOID="IT.QS.QSSEQ" Value="95"/>
<ItemData ItemOID="IT.QS.QSTESTCD" Value="MMSED"/>
<ItemData ItemOID="IT.QS.QSTEST" Value="Recall"/>
<ItemData ItemOID="IT.QS.QSCAT" Value="MINI MENTAL STATE EXAMINATION (MMSE)"/>
<ItemData ItemOID="IT.QS.QSORRES" Value="0"/>
<ItemData ItemOID="IT.QS.QSSTRESC" Value="0"/>
<ItemData ItemOID="IT.QS.QSSTRESN" Value="0"/>
<ItemData ItemOID="IT.QS.VISITNUM" Value="10"/>
<ItemData ItemOID="IT.QS.VISIT" Value="WEEK 24"/>
<ItemData ItemOID="IT.QS.VISITDY" Value="169"/>
<ItemData ItemOID="IT.QS.QSDTC" Value="2004-03-29"/>
<ItemData ItemOID="IT.QS.QSDY" Value="172"/>
</ItemGroupData>
<ItemGroupData ItemGroupOID="IG.QSMM" data:ItemGroupDataSeq="79">
<ItemData ItemOID="IT.STUDYID" Value="CDISC01"/>
<ItemData ItemOID="IT.QS.DOMAIN" Value="QS"/>
<ItemData ItemOID="IT.USUBJID" Value="CDISC01.200002"/>
<ItemData ItemOID="IT.QS.QSSEQ" Value="96"/>
<ItemData ItemOID="IT.QS.QSTESTCD" Value="MMSEET"/>
<ItemData ItemOID="IT.QS.QSTEST" Value="Language"/>
<ItemData ItemOID="IT.QS.QSCAT" Value="MINI MENTAL STATE EXAMINATION (MMSE)"/>
<ItemData ItemOID="IT.QS.QSORRES" Value="8"/>
<ItemData ItemOID="IT.QS.QSSTRESC" Value="8"/>
<ItemData ItemOID="IT.QS.QSSTRESN" Value="8"/>
<ItemData ItemOID="IT.QS.VISITNUM" Value="1"/>
<ItemData ItemOID="IT.QS.VISIT" Value="SCREEN"/>
<ItemData ItemOID="IT.QS.VISITDY" Value="-13"/>
<ItemData ItemOID="IT.QS.QSDTC" Value="2003-09-18"/>
<ItemData ItemOID="IT.QS.QSDY" Value="-22"/>
</ItemGroupData>
<ItemGroupData ItemGroupOID="IG.QSMM" data:ItemGroupDataSeq="80">
<ItemData ItemOID="IT.STUDYID" Value="CDISC01"/>
<ItemData ItemOID="IT.QS.DOMAIN" Value="QS"/>
<ItemData ItemOID="IT.USUBJID" Value="CDISC01.200002"/>
<ItemData ItemOID="IT.QS.QSSEQ" Value="97"/>
<ItemData ItemOID="IT.QS.QSTESTCD" Value="MMSEET"/>
<ItemData ItemOID="IT.QS.QSTEST" Value="Language"/>
<ItemData ItemOID="IT.QS.QSCAT" Value="MINI MENTAL STATE EXAMINATION (MMSE)"/>
<ItemData ItemOID="IT.QS.QSORRES" Value="8"/>
<ItemData ItemOID="IT.QS.QSSTRESC" Value="8"/>
<ItemData ItemOID="IT.QS.QSSTRESN" Value="8"/>
<ItemData ItemOID="IT.QS.QSBLFL" Value="Y"/>
<ItemData ItemOID="IT.QS.VISITNUM" Value="2"/>
<ItemData ItemOID="IT.QS.VISIT" Value="BASELINE"/>
<ItemData ItemOID="IT.QS.VISITDY" Value="1"/>
<ItemData ItemOID="IT.QS.QSDTC" Value="2003-10-10"/>
<ItemData ItemOID="IT.QS.QSDY" Value="1"/>
</ItemGroupData>
<ItemGroupData ItemGroupOID="IG.QSMM" data:ItemGroupDataSeq="81">
<ItemData ItemOID="IT.STUDYID" Value="CDISC01"/>
<ItemData ItemOID="IT.QS.DOMAIN" Value="QS"/>
<ItemData ItemOID="IT.USUBJID" Value="CDISC01.200002"/>
<ItemData ItemOID="IT.QS.QSSEQ" Value="98"/>
<ItemData ItemOID="IT.QS.QSTESTCD" Value="MMSEET"/>
<ItemData ItemOID="IT.QS.QSTEST" Value="Language"/>
<ItemData ItemOID="IT.QS.QSCAT" Value="MINI MENTAL STATE EXAMINATION (MMSE)"/>
<ItemData ItemOID="IT.QS.QSORRES" Value="7"/>
<ItemData ItemOID="IT.QS.QSSTRESC" Value="7"/>
<ItemData ItemOID="IT.QS.QSSTRESN" Value="7"/>
<ItemData ItemOID="IT.QS.VISITNUM" Value="10"/>
<ItemData ItemOID="IT.QS.VISIT" Value="WEEK 24"/>
<ItemData ItemOID="IT.QS.VISITDY" Value="169"/>
<ItemData ItemOID="IT.QS.QSDTC" Value="2004-03-29"/>
<ItemData ItemOID="IT.QS.QSDY" Value="172"/>
</ItemGroupData>
<ItemGroupData ItemGroupOID="IG.QSMM" data:ItemGroupDataSeq="82">
<ItemData ItemOID="IT.STUDYID" Value="CDISC01"/>
<ItemData ItemOID="IT.QS.DOMAIN" Value="QS"/>
<ItemData ItemOID="IT.USUBJID" Value="CDISC01.200002"/>
<ItemData ItemOID="IT.QS.QSSEQ" Value="99"/>
<ItemData ItemOID="IT.QS.QSTESTCD" Value="MMSETOT"/>
<ItemData ItemOID="IT.QS.QSTEST" Value="Total Score"/>
<ItemData ItemOID="IT.QS.QSCAT" Value="MINI MENTAL STATE EXAMINATION (MMSE)"/>
<ItemData ItemOID="IT.QS.QSORRES" Value="18"/>
<ItemData ItemOID="IT.QS.QSSTRESC" Value="18"/>
<ItemData ItemOID="IT.QS.QSSTRESN" Value="18"/>
<ItemData ItemOID="IT.QS.VISITNUM" Value="1"/>
<ItemData ItemOID="IT.QS.VISIT" Value="SCREEN"/>
<ItemData ItemOID="IT.QS.VISITDY" Value="-13"/>
<ItemData ItemOID="IT.QS.QSDTC" Value="2003-09-18"/>
<ItemData ItemOID="IT.QS.QSDY" Value="-22"/>
</ItemGroupData>
<ItemGroupData ItemGroupOID="IG.QSMM" data:ItemGroupDataSeq="83">
<ItemData ItemOID="IT.STUDYID" Value="CDISC01"/>
<ItemData ItemOID="IT.QS.DOMAIN" Value="QS"/>
<ItemData ItemOID="IT.USUBJID" Value="CDISC01.200002"/>
<ItemData ItemOID="IT.QS.QSSEQ" Value="100"/>
<ItemData ItemOID="IT.QS.QSTESTCD" Value="MMSETOT"/>
<ItemData ItemOID="IT.QS.QSTEST" Value="Total Score"/>
<ItemData ItemOID="IT.QS.QSCAT" Value="MINI MENTAL STATE EXAMINATION (MMSE)"/>
<ItemData ItemOID="IT.QS.QSORRES" Value="20"/>
<ItemData ItemOID="IT.QS.QSSTRESC" Value="20"/>
<ItemData ItemOID="IT.QS.QSSTRESN" Value="20"/>
<ItemData ItemOID="IT.QS.QSBLFL" Value="Y"/>
<ItemData ItemOID="IT.QS.VISITNUM" Value="2"/>
<ItemData ItemOID="IT.QS.VISIT" Value="BASELINE"/>
<ItemData ItemOID="IT.QS.VISITDY" Value="1"/>
<ItemData ItemOID="IT.QS.QSDTC" Value="2003-10-10"/>
<ItemData ItemOID="IT.QS.QSDY" Value="1"/>
</ItemGroupData>
<ItemGroupData ItemGroupOID="IG.QSMM" data:ItemGroupDataSeq="84">
<ItemData ItemOID="IT.STUDYID" Value="CDISC01"/>
<ItemData ItemOID="IT.QS.DOMAIN" Value="QS"/>
<ItemData ItemOID="IT.USUBJID" Value="CDISC01.200002"/>
<ItemData ItemOID="IT.QS.QSSEQ" Value="101"/>
<ItemData ItemOID="IT.QS.QSTESTCD" Value="MMSETOT"/>
<ItemData ItemOID="IT.QS.QSTEST" Value="Total Score"/>
<ItemData ItemOID="IT.QS.QSCAT" Value="MINI MENTAL STATE EXAMINATION (MMSE)"/>
<ItemData ItemOID="IT.QS.QSORRES" Value="19"/>
<ItemData ItemOID="IT.QS.QSSTRESC" Value="19"/>
<ItemData ItemOID="IT.QS.QSSTRESN" Value="19"/>
<ItemData ItemOID="IT.QS.VISITNUM" Value="10"/>
<ItemData ItemOID="IT.QS.VISIT" Value="WEEK 24"/>
<ItemData ItemOID="IT.QS.VISITDY" Value="169"/>
<ItemData ItemOID="IT.QS.QSDTC" Value="2004-03-29"/>
<ItemData ItemOID="IT.QS.QSDY" Value="172"/>
</ItemGroupData>
</ClinicalData>
</ODM>
