<?xml version="1.0" encoding="UTF-8"?>
<!-- Produced from SAS data using SAS Clinical Standards Toolkit -->
<ODM
xmlns="http://www.cdisc.org/ns/odm/v1.3"
xmlns:data="http://www.cdisc.org/ns/Dataset-XML/v1.0"
ODMVersion="1.3.2"
FileType="Snapshot"
FileOID="cdisc01.RELREC"
PriorFileOID="www.cdisc.org.Studycdisc01-Define-XML_2.0.0"
CreationDateTime="2022-05-31T16:59:25"
data:DatasetXMLVersion="1.0.0">
<ClinicalData StudyOID="cdisc01" MetaDataVersionOID="MDV.CDISC01.SDTMIG.3.1.2.SDTM.1.2">
<ItemGroupData ItemGroupOID="IG.RELREC" data:ItemGroupDataSeq="1">
<ItemData ItemOID="IT.STUDYID" Value="CDISC01"/>
<ItemData ItemOID="IT.RDOMAIN" Value="AE"/>
<ItemData ItemOID="IT.USUBJID" Value="CDISC01.200001"/>
<ItemData ItemOID="IT.RELREC.IDVAR" Value="AESPID"/>
<ItemData ItemOID="IT.RELREC.IDVARVAL" Value="5"/>
<ItemData ItemOID="IT.RELREC.RELID" Value="1"/>
</ItemGroupData>
<ItemGroupData ItemGroupOID="IG.RELREC" data:ItemGroupDataSeq="2">
<ItemData ItemOID="IT.STUDYID" Value="CDISC01"/>
<ItemData ItemOID="IT.RDOMAIN" Value="DS"/>
<ItemData ItemOID="IT.USUBJID" Value="CDISC01.200001"/>
<ItemData ItemOID="IT.RELREC.IDVAR" Value="DSSEQ"/>
<ItemData ItemOID="IT.RELREC.IDVARVAL" Value="3"/>
<ItemData ItemOID="IT.RELREC.RELID" Value="1"/>
</ItemGroupData>
</ClinicalData>
</ODM>
