<?xml version="1.0" encoding="UTF-8"?>
<!-- Produced from SAS data using SAS Clinical Standards Toolkit -->
<ODM
xmlns="http://www.cdisc.org/ns/odm/v1.3"
xmlns:data="http://www.cdisc.org/ns/Dataset-XML/v1.0"
ODMVersion="1.3.2"
FileType="Snapshot"
FileOID="cdisc01.SUPPVS"
PriorFileOID="www.cdisc.org.Studycdisc01-Define-XML_2.0.0"
CreationDateTime="2022-05-31T16:59:27"
data:DatasetXMLVersion="1.0.0">
<ClinicalData StudyOID="cdisc01" MetaDataVersionOID="MDV.CDISC01.SDTMIG.3.1.2.SDTM.1.2">
<ItemGroupData ItemGroupOID="IG.SUPPVS" data:ItemGroupDataSeq="1">
<ItemData ItemOID="IT.STUDYID" Value="CDISC01"/>
<ItemData ItemOID="IT.RDOMAIN" Value="VS"/>
<ItemData ItemOID="IT.USUBJID" Value="CDISC01.100014"/>
<ItemData ItemOID="IT.SUPPVS.IDVAR" Value="VSSEQ"/>
<ItemData ItemOID="IT.SUPPVS.IDVARVAL" Value="18"/>
<ItemData ItemOID="IT.SUPPVS.QNAM" Value="VSCLSIG"/>
<ItemData ItemOID="IT.SUPPVS.QLABEL" Value="Clinically Significant"/>
<ItemData ItemOID="IT.SUPPVS.QVAL" Value="Y"/>
<ItemData ItemOID="IT.SUPPVS.QORIG" Value="Derived"/>
<ItemData ItemOID="IT.SUPPVS.QEVAL" Value="CLINICAL STUDY SPONSOR"/>
</ItemGroupData>
</ClinicalData>
</ODM>
