<?xml version="1.0" encoding="UTF-8"?>
<!-- Produced from SAS data using SAS Clinical Standards Toolkit -->
<ODM
xmlns="http://www.cdisc.org/ns/odm/v1.3"
xmlns:data="http://www.cdisc.org/ns/Dataset-XML/v1.0"
ODMVersion="1.3.2"
FileType="Snapshot"
FileOID="cdisc01.SUPPCM"
PriorFileOID="www.cdisc.org.Studycdisc01-Define-XML_2.0.0"
CreationDateTime="2022-05-31T16:59:26"
data:DatasetXMLVersion="1.0.0">
<ClinicalData StudyOID="cdisc01" MetaDataVersionOID="MDV.CDISC01.SDTMIG.3.1.2.SDTM.1.2">
<ItemGroupData ItemGroupOID="IG.SUPPCM" data:ItemGroupDataSeq="1">
<ItemData ItemOID="IT.STUDYID" Value="CDISC01"/>
<ItemData ItemOID="IT.RDOMAIN" Value="CM"/>
<ItemData ItemOID="IT.USUBJID" Value="CDISC01.100008"/>
<ItemData ItemOID="IT.SUPPCM.IDVAR" Value="CMSEQ"/>
<ItemData ItemOID="IT.SUPPCM.IDVARVAL" Value="1"/>
<ItemData ItemOID="IT.SUPPCM.QNAM" Value="ATC4CODE"/>
<ItemData ItemOID="IT.SUPPCM.QLABEL" Value="WHO_DRUG ATC Level 4 Code"/>
<ItemData ItemOID="IT.SUPPCM.QVAL" Value="C08CA"/>
<ItemData ItemOID="IT.SUPPCM.QORIG" Value="Assigned"/>
<ItemData ItemOID="IT.SUPPCM.QEVAL" Value="CLINICAL STUDY SPONSOR"/>
</ItemGroupData>
<ItemGroupData ItemGroupOID="IG.SUPPCM" data:ItemGroupDataSeq="2">
<ItemData ItemOID="IT.STUDYID" Value="CDISC01"/>
<ItemData ItemOID="IT.RDOMAIN" Value="CM"/>
<ItemData ItemOID="IT.USUBJID" Value="CDISC01.100008"/>
<ItemData ItemOID="IT.SUPPCM.IDVAR" Value="CMSEQ"/>
<ItemData ItemOID="IT.SUPPCM.IDVARVAL" Value="1"/>
<ItemData ItemOID="IT.SUPPCM.QNAM" Value="ATC4TERM"/>
<ItemData ItemOID="IT.SUPPCM.QLABEL" Value="ATC4 Drug Class Term"/>
<ItemData ItemOID="IT.SUPPCM.QVAL" Value="DIHYDROPYRIDINE DERIVATIVES"/>
<ItemData ItemOID="IT.SUPPCM.QORIG" Value="Assigned"/>
<ItemData ItemOID="IT.SUPPCM.QEVAL" Value="CLINICAL STUDY SPONSOR"/>
</ItemGroupData>
<ItemGroupData ItemGroupOID="IG.SUPPCM" data:ItemGroupDataSeq="3">
<ItemData ItemOID="IT.STUDYID" Value="CDISC01"/>
<ItemData ItemOID="IT.RDOMAIN" Value="CM"/>
<ItemData ItemOID="IT.USUBJID" Value="CDISC01.100008"/>
<ItemData ItemOID="IT.SUPPCM.IDVAR" Value="CMSEQ"/>
<ItemData ItemOID="IT.SUPPCM.IDVARVAL" Value="1"/>
<ItemData ItemOID="IT.SUPPCM.QNAM" Value="CPREFCD"/>
<ItemData ItemOID="IT.SUPPCM.QLABEL" Value="WHO_DRUG Drug Code"/>
<ItemData ItemOID="IT.SUPPCM.QVAL" Value="00340701119"/>
<ItemData ItemOID="IT.SUPPCM.QORIG" Value="Assigned"/>
<ItemData ItemOID="IT.SUPPCM.QEVAL" Value="CLINICAL STUDY SPONSOR"/>
</ItemGroupData>
<ItemGroupData ItemGroupOID="IG.SUPPCM" data:ItemGroupDataSeq="4">
<ItemData ItemOID="IT.STUDYID" Value="CDISC01"/>
<ItemData ItemOID="IT.RDOMAIN" Value="CM"/>
<ItemData ItemOID="IT.USUBJID" Value="CDISC01.100008"/>
<ItemData ItemOID="IT.SUPPCM.IDVAR" Value="CMSEQ"/>
<ItemData ItemOID="IT.SUPPCM.IDVARVAL" Value="2"/>
<ItemData ItemOID="IT.SUPPCM.QNAM" Value="ATC4CODE"/>
<ItemData ItemOID="IT.SUPPCM.QLABEL" Value="WHO_DRUG ATC Level 4 Code"/>
<ItemData ItemOID="IT.SUPPCM.QVAL" Value="A10BB"/>
<ItemData ItemOID="IT.SUPPCM.QORIG" Value="Assigned"/>
<ItemData ItemOID="IT.SUPPCM.QEVAL" Value="CLINICAL STUDY SPONSOR"/>
</ItemGroupData>
<ItemGroupData ItemGroupOID="IG.SUPPCM" data:ItemGroupDataSeq="5">
<ItemData ItemOID="IT.STUDYID" Value="CDISC01"/>
<ItemData ItemOID="IT.RDOMAIN" Value="CM"/>
<ItemData ItemOID="IT.USUBJID" Value="CDISC01.100008"/>
<ItemData ItemOID="IT.SUPPCM.IDVAR" Value="CMSEQ"/>
<ItemData ItemOID="IT.SUPPCM.IDVARVAL" Value="2"/>
<ItemData ItemOID="IT.SUPPCM.QNAM" Value="ATC4TERM"/>
<ItemData ItemOID="IT.SUPPCM.QLABEL" Value="ATC4 Drug Class Term"/>
<ItemData ItemOID="IT.SUPPCM.QVAL" Value="SULFONAMIDES, UREA DERIVATIVES"/>
<ItemData ItemOID="IT.SUPPCM.QORIG" Value="Assigned"/>
<ItemData ItemOID="IT.SUPPCM.QEVAL" Value="CLINICAL STUDY SPONSOR"/>
</ItemGroupData>
<ItemGroupData ItemGroupOID="IG.SUPPCM" data:ItemGroupDataSeq="6">
<ItemData ItemOID="IT.STUDYID" Value="CDISC01"/>
<ItemData ItemOID="IT.RDOMAIN" Value="CM"/>
<ItemData ItemOID="IT.USUBJID" Value="CDISC01.100008"/>
<ItemData ItemOID="IT.SUPPCM.IDVAR" Value="CMSEQ"/>
<ItemData ItemOID="IT.SUPPCM.IDVARVAL" Value="2"/>
<ItemData ItemOID="IT.SUPPCM.QNAM" Value="CPREFCD"/>
<ItemData ItemOID="IT.SUPPCM.QLABEL" Value="WHO_DRUG Drug Code"/>
<ItemData ItemOID="IT.SUPPCM.QVAL" Value="00145301005"/>
<ItemData ItemOID="IT.SUPPCM.QORIG" Value="Assigned"/>
<ItemData ItemOID="IT.SUPPCM.QEVAL" Value="CLINICAL STUDY SPONSOR"/>
</ItemGroupData>
<ItemGroupData ItemGroupOID="IG.SUPPCM" data:ItemGroupDataSeq="7">
<ItemData ItemOID="IT.STUDYID" Value="CDISC01"/>
<ItemData ItemOID="IT.RDOMAIN" Value="CM"/>
<ItemData ItemOID="IT.USUBJID" Value="CDISC01.100008"/>
<ItemData ItemOID="IT.SUPPCM.IDVAR" Value="CMSEQ"/>
<ItemData ItemOID="IT.SUPPCM.IDVARVAL" Value="3"/>
<ItemData ItemOID="IT.SUPPCM.QNAM" Value="ATC4CODE"/>
<ItemData ItemOID="IT.SUPPCM.QLABEL" Value="WHO_DRUG ATC Level 4 Code"/>
<ItemData ItemOID="IT.SUPPCM.QVAL" Value="C09AA"/>
<ItemData ItemOID="IT.SUPPCM.QORIG" Value="Assigned"/>
<ItemData ItemOID="IT.SUPPCM.QEVAL" Value="CLINICAL STUDY SPONSOR"/>
</ItemGroupData>
<ItemGroupData ItemGroupOID="IG.SUPPCM" data:ItemGroupDataSeq="8">
<ItemData ItemOID="IT.STUDYID" Value="CDISC01"/>
<ItemData ItemOID="IT.RDOMAIN" Value="CM"/>
<ItemData ItemOID="IT.USUBJID" Value="CDISC01.100008"/>
<ItemData ItemOID="IT.SUPPCM.IDVAR" Value="CMSEQ"/>
<ItemData ItemOID="IT.SUPPCM.IDVARVAL" Value="3"/>
<ItemData ItemOID="IT.SUPPCM.QNAM" Value="ATC4TERM"/>
<ItemData ItemOID="IT.SUPPCM.QLABEL" Value="ATC4 Drug Class Term"/>
<ItemData ItemOID="IT.SUPPCM.QVAL" Value="ACE-INHIBITORS, PLAIN"/>
<ItemData ItemOID="IT.SUPPCM.QORIG" Value="Assigned"/>
<ItemData ItemOID="IT.SUPPCM.QEVAL" Value="CLINICAL STUDY SPONSOR"/>
</ItemGroupData>
<ItemGroupData ItemGroupOID="IG.SUPPCM" data:ItemGroupDataSeq="9">
<ItemData ItemOID="IT.STUDYID" Value="CDISC01"/>
<ItemData ItemOID="IT.RDOMAIN" Value="CM"/>
<ItemData ItemOID="IT.USUBJID" Value="CDISC01.100008"/>
<ItemData ItemOID="IT.SUPPCM.IDVAR" Value="CMSEQ"/>
<ItemData ItemOID="IT.SUPPCM.IDVARVAL" Value="3"/>
<ItemData ItemOID="IT.SUPPCM.QNAM" Value="CPREFCD"/>
<ItemData ItemOID="IT.SUPPCM.QLABEL" Value="WHO_DRUG Drug Code"/>
<ItemData ItemOID="IT.SUPPCM.QVAL" Value="00810602004"/>
<ItemData ItemOID="IT.SUPPCM.QORIG" Value="Assigned"/>
<ItemData ItemOID="IT.SUPPCM.QEVAL" Value="CLINICAL STUDY SPONSOR"/>
</ItemGroupData>
<ItemGroupData ItemGroupOID="IG.SUPPCM" data:ItemGroupDataSeq="10">
<ItemData ItemOID="IT.STUDYID" Value="CDISC01"/>
<ItemData ItemOID="IT.RDOMAIN" Value="CM"/>
<ItemData ItemOID="IT.USUBJID" Value="CDISC01.100008"/>
<ItemData ItemOID="IT.SUPPCM.IDVAR" Value="CMSEQ"/>
<ItemData ItemOID="IT.SUPPCM.IDVARVAL" Value="4"/>
<ItemData ItemOID="IT.SUPPCM.QNAM" Value="ATC4CODE"/>
<ItemData ItemOID="IT.SUPPCM.QLABEL" Value="WHO_DRUG ATC Level 4 Code"/>
<ItemData ItemOID="IT.SUPPCM.QVAL" Value="A12AA"/>
<ItemData ItemOID="IT.SUPPCM.QORIG" Value="Assigned"/>
<ItemData ItemOID="IT.SUPPCM.QEVAL" Value="CLINICAL STUDY SPONSOR"/>
</ItemGroupData>
<ItemGroupData ItemGroupOID="IG.SUPPCM" data:ItemGroupDataSeq="11">
<ItemData ItemOID="IT.STUDYID" Value="CDISC01"/>
<ItemData ItemOID="IT.RDOMAIN" Value="CM"/>
<ItemData ItemOID="IT.USUBJID" Value="CDISC01.100008"/>
<ItemData ItemOID="IT.SUPPCM.IDVAR" Value="CMSEQ"/>
<ItemData ItemOID="IT.SUPPCM.IDVARVAL" Value="4"/>
<ItemData ItemOID="IT.SUPPCM.QNAM" Value="ATC4TERM"/>
<ItemData ItemOID="IT.SUPPCM.QLABEL" Value="ATC4 Drug Class Term"/>
<ItemData ItemOID="IT.SUPPCM.QVAL" Value="CALCIUM"/>
<ItemData ItemOID="IT.SUPPCM.QORIG" Value="Assigned"/>
<ItemData ItemOID="IT.SUPPCM.QEVAL" Value="CLINICAL STUDY SPONSOR"/>
</ItemGroupData>
<ItemGroupData ItemGroupOID="IG.SUPPCM" data:ItemGroupDataSeq="12">
<ItemData ItemOID="IT.STUDYID" Value="CDISC01"/>
<ItemData ItemOID="IT.RDOMAIN" Value="CM"/>
<ItemData ItemOID="IT.USUBJID" Value="CDISC01.100008"/>
<ItemData ItemOID="IT.SUPPCM.IDVAR" Value="CMSEQ"/>
<ItemData ItemOID="IT.SUPPCM.IDVARVAL" Value="4"/>
<ItemData ItemOID="IT.SUPPCM.QNAM" Value="CPREFCD"/>
<ItemData ItemOID="IT.SUPPCM.QLABEL" Value="WHO_DRUG Drug Code"/>
<ItemData ItemOID="IT.SUPPCM.QVAL" Value="00751501001"/>
<ItemData ItemOID="IT.SUPPCM.QORIG" Value="Assigned"/>
<ItemData ItemOID="IT.SUPPCM.QEVAL" Value="CLINICAL STUDY SPONSOR"/>
</ItemGroupData>
<ItemGroupData ItemGroupOID="IG.SUPPCM" data:ItemGroupDataSeq="13">
<ItemData ItemOID="IT.STUDYID" Value="CDISC01"/>
<ItemData ItemOID="IT.RDOMAIN" Value="CM"/>
<ItemData ItemOID="IT.USUBJID" Value="CDISC01.100008"/>
<ItemData ItemOID="IT.SUPPCM.IDVAR" Value="CMSEQ"/>
<ItemData ItemOID="IT.SUPPCM.IDVARVAL" Value="5"/>
<ItemData ItemOID="IT.SUPPCM.QNAM" Value="ATC4CODE"/>
<ItemData ItemOID="IT.SUPPCM.QLABEL" Value="WHO_DRUG ATC Level 4 Code"/>
<ItemData ItemOID="IT.SUPPCM.QVAL" Value="A10BA"/>
<ItemData ItemOID="IT.SUPPCM.QORIG" Value="Assigned"/>
<ItemData ItemOID="IT.SUPPCM.QEVAL" Value="CLINICAL STUDY SPONSOR"/>
</ItemGroupData>
<ItemGroupData ItemGroupOID="IG.SUPPCM" data:ItemGroupDataSeq="14">
<ItemData ItemOID="IT.STUDYID" Value="CDISC01"/>
<ItemData ItemOID="IT.RDOMAIN" Value="CM"/>
<ItemData ItemOID="IT.USUBJID" Value="CDISC01.100008"/>
<ItemData ItemOID="IT.SUPPCM.IDVAR" Value="CMSEQ"/>
<ItemData ItemOID="IT.SUPPCM.IDVARVAL" Value="5"/>
<ItemData ItemOID="IT.SUPPCM.QNAM" Value="ATC4TERM"/>
<ItemData ItemOID="IT.SUPPCM.QLABEL" Value="ATC4 Drug Class Term"/>
<ItemData ItemOID="IT.SUPPCM.QVAL" Value="BIGUANIDES"/>
<ItemData ItemOID="IT.SUPPCM.QORIG" Value="Assigned"/>
<ItemData ItemOID="IT.SUPPCM.QEVAL" Value="CLINICAL STUDY SPONSOR"/>
</ItemGroupData>
<ItemGroupData ItemGroupOID="IG.SUPPCM" data:ItemGroupDataSeq="15">
<ItemData ItemOID="IT.STUDYID" Value="CDISC01"/>
<ItemData ItemOID="IT.RDOMAIN" Value="CM"/>
<ItemData ItemOID="IT.USUBJID" Value="CDISC01.100008"/>
<ItemData ItemOID="IT.SUPPCM.IDVAR" Value="CMSEQ"/>
<ItemData ItemOID="IT.SUPPCM.IDVARVAL" Value="5"/>
<ItemData ItemOID="IT.SUPPCM.QNAM" Value="CPREFCD"/>
<ItemData ItemOID="IT.SUPPCM.QLABEL" Value="WHO_DRUG Drug Code"/>
<ItemData ItemOID="IT.SUPPCM.QVAL" Value="00082702042"/>
<ItemData ItemOID="IT.SUPPCM.QORIG" Value="Assigned"/>
<ItemData ItemOID="IT.SUPPCM.QEVAL" Value="CLINICAL STUDY SPONSOR"/>
</ItemGroupData>
<ItemGroupData ItemGroupOID="IG.SUPPCM" data:ItemGroupDataSeq="16">
<ItemData ItemOID="IT.STUDYID" Value="CDISC01"/>
<ItemData ItemOID="IT.RDOMAIN" Value="CM"/>
<ItemData ItemOID="IT.USUBJID" Value="CDISC01.100008"/>
<ItemData ItemOID="IT.SUPPCM.IDVAR" Value="CMSEQ"/>
<ItemData ItemOID="IT.SUPPCM.IDVARVAL" Value="6"/>
<ItemData ItemOID="IT.SUPPCM.QNAM" Value="ATC4CODE"/>
<ItemData ItemOID="IT.SUPPCM.QLABEL" Value="WHO_DRUG ATC Level 4 Code"/>
<ItemData ItemOID="IT.SUPPCM.QVAL" Value="A10BA"/>
<ItemData ItemOID="IT.SUPPCM.QORIG" Value="Assigned"/>
<ItemData ItemOID="IT.SUPPCM.QEVAL" Value="CLINICAL STUDY SPONSOR"/>
</ItemGroupData>
<ItemGroupData ItemGroupOID="IG.SUPPCM" data:ItemGroupDataSeq="17">
<ItemData ItemOID="IT.STUDYID" Value="CDISC01"/>
<ItemData ItemOID="IT.RDOMAIN" Value="CM"/>
<ItemData ItemOID="IT.USUBJID" Value="CDISC01.100008"/>
<ItemData ItemOID="IT.SUPPCM.IDVAR" Value="CMSEQ"/>
<ItemData ItemOID="IT.SUPPCM.IDVARVAL" Value="6"/>
<ItemData ItemOID="IT.SUPPCM.QNAM" Value="ATC4TERM"/>
<ItemData ItemOID="IT.SUPPCM.QLABEL" Value="ATC4 Drug Class Term"/>
<ItemData ItemOID="IT.SUPPCM.QVAL" Value="BIGUANIDES"/>
<ItemData ItemOID="IT.SUPPCM.QORIG" Value="Assigned"/>
<ItemData ItemOID="IT.SUPPCM.QEVAL" Value="CLINICAL STUDY SPONSOR"/>
</ItemGroupData>
<ItemGroupData ItemGroupOID="IG.SUPPCM" data:ItemGroupDataSeq="18">
<ItemData ItemOID="IT.STUDYID" Value="CDISC01"/>
<ItemData ItemOID="IT.RDOMAIN" Value="CM"/>
<ItemData ItemOID="IT.USUBJID" Value="CDISC01.100008"/>
<ItemData ItemOID="IT.SUPPCM.IDVAR" Value="CMSEQ"/>
<ItemData ItemOID="IT.SUPPCM.IDVARVAL" Value="6"/>
<ItemData ItemOID="IT.SUPPCM.QNAM" Value="CPREFCD"/>
<ItemData ItemOID="IT.SUPPCM.QLABEL" Value="WHO_DRUG Drug Code"/>
<ItemData ItemOID="IT.SUPPCM.QVAL" Value="00082702042"/>
<ItemData ItemOID="IT.SUPPCM.QORIG" Value="Assigned"/>
<ItemData ItemOID="IT.SUPPCM.QEVAL" Value="CLINICAL STUDY SPONSOR"/>
</ItemGroupData>
<ItemGroupData ItemGroupOID="IG.SUPPCM" data:ItemGroupDataSeq="19">
<ItemData ItemOID="IT.STUDYID" Value="CDISC01"/>
<ItemData ItemOID="IT.RDOMAIN" Value="CM"/>
<ItemData ItemOID="IT.USUBJID" Value="CDISC01.100008"/>
<ItemData ItemOID="IT.SUPPCM.IDVAR" Value="CMSEQ"/>
<ItemData ItemOID="IT.SUPPCM.IDVARVAL" Value="7"/>
<ItemData ItemOID="IT.SUPPCM.QNAM" Value="ATC4CODE"/>
<ItemData ItemOID="IT.SUPPCM.QLABEL" Value="WHO_DRUG ATC Level 4 Code"/>
<ItemData ItemOID="IT.SUPPCM.QVAL" Value="A12CC"/>
<ItemData ItemOID="IT.SUPPCM.QORIG" Value="Assigned"/>
<ItemData ItemOID="IT.SUPPCM.QEVAL" Value="CLINICAL STUDY SPONSOR"/>
</ItemGroupData>
<ItemGroupData ItemGroupOID="IG.SUPPCM" data:ItemGroupDataSeq="20">
<ItemData ItemOID="IT.STUDYID" Value="CDISC01"/>
<ItemData ItemOID="IT.RDOMAIN" Value="CM"/>
<ItemData ItemOID="IT.USUBJID" Value="CDISC01.100008"/>
<ItemData ItemOID="IT.SUPPCM.IDVAR" Value="CMSEQ"/>
<ItemData ItemOID="IT.SUPPCM.IDVARVAL" Value="7"/>
<ItemData ItemOID="IT.SUPPCM.QNAM" Value="ATC4TERM"/>
<ItemData ItemOID="IT.SUPPCM.QLABEL" Value="ATC4 Drug Class Term"/>
<ItemData ItemOID="IT.SUPPCM.QVAL" Value="MAGNESIUM"/>
<ItemData ItemOID="IT.SUPPCM.QORIG" Value="Assigned"/>
<ItemData ItemOID="IT.SUPPCM.QEVAL" Value="CLINICAL STUDY SPONSOR"/>
</ItemGroupData>
<ItemGroupData ItemGroupOID="IG.SUPPCM" data:ItemGroupDataSeq="21">
<ItemData ItemOID="IT.STUDYID" Value="CDISC01"/>
<ItemData ItemOID="IT.RDOMAIN" Value="CM"/>
<ItemData ItemOID="IT.USUBJID" Value="CDISC01.100008"/>
<ItemData ItemOID="IT.SUPPCM.IDVAR" Value="CMSEQ"/>
<ItemData ItemOID="IT.SUPPCM.IDVARVAL" Value="7"/>
<ItemData ItemOID="IT.SUPPCM.QNAM" Value="CPREFCD"/>
<ItemData ItemOID="IT.SUPPCM.QLABEL" Value="WHO_DRUG Drug Code"/>
<ItemData ItemOID="IT.SUPPCM.QVAL" Value="01486801001"/>
<ItemData ItemOID="IT.SUPPCM.QORIG" Value="Assigned"/>
<ItemData ItemOID="IT.SUPPCM.QEVAL" Value="CLINICAL STUDY SPONSOR"/>
</ItemGroupData>
<ItemGroupData ItemGroupOID="IG.SUPPCM" data:ItemGroupDataSeq="22">
<ItemData ItemOID="IT.STUDYID" Value="CDISC01"/>
<ItemData ItemOID="IT.RDOMAIN" Value="CM"/>
<ItemData ItemOID="IT.USUBJID" Value="CDISC01.100008"/>
<ItemData ItemOID="IT.SUPPCM.IDVAR" Value="CMSEQ"/>
<ItemData ItemOID="IT.SUPPCM.IDVARVAL" Value="8"/>
<ItemData ItemOID="IT.SUPPCM.QNAM" Value="ATC4CODE"/>
<ItemData ItemOID="IT.SUPPCM.QLABEL" Value="WHO_DRUG ATC Level 4 Code"/>
<ItemData ItemOID="IT.SUPPCM.QVAL" Value="A11AB"/>
<ItemData ItemOID="IT.SUPPCM.QORIG" Value="Assigned"/>
<ItemData ItemOID="IT.SUPPCM.QEVAL" Value="CLINICAL STUDY SPONSOR"/>
</ItemGroupData>
<ItemGroupData ItemGroupOID="IG.SUPPCM" data:ItemGroupDataSeq="23">
<ItemData ItemOID="IT.STUDYID" Value="CDISC01"/>
<ItemData ItemOID="IT.RDOMAIN" Value="CM"/>
<ItemData ItemOID="IT.USUBJID" Value="CDISC01.100008"/>
<ItemData ItemOID="IT.SUPPCM.IDVAR" Value="CMSEQ"/>
<ItemData ItemOID="IT.SUPPCM.IDVARVAL" Value="8"/>
<ItemData ItemOID="IT.SUPPCM.QNAM" Value="ATC4TERM"/>
<ItemData ItemOID="IT.SUPPCM.QLABEL" Value="ATC4 Drug Class Term"/>
<ItemData ItemOID="IT.SUPPCM.QVAL" Value="MULTIVITAMINS, OTHER COMBINATIONS"/>
<ItemData ItemOID="IT.SUPPCM.QORIG" Value="Assigned"/>
<ItemData ItemOID="IT.SUPPCM.QEVAL" Value="CLINICAL STUDY SPONSOR"/>
</ItemGroupData>
<ItemGroupData ItemGroupOID="IG.SUPPCM" data:ItemGroupDataSeq="24">
<ItemData ItemOID="IT.STUDYID" Value="CDISC01"/>
<ItemData ItemOID="IT.RDOMAIN" Value="CM"/>
<ItemData ItemOID="IT.USUBJID" Value="CDISC01.100008"/>
<ItemData ItemOID="IT.SUPPCM.IDVAR" Value="CMSEQ"/>
<ItemData ItemOID="IT.SUPPCM.IDVARVAL" Value="8"/>
<ItemData ItemOID="IT.SUPPCM.QNAM" Value="CPREFCD"/>
<ItemData ItemOID="IT.SUPPCM.QLABEL" Value="WHO_DRUG Drug Code"/>
<ItemData ItemOID="IT.SUPPCM.QVAL" Value="00116001001"/>
<ItemData ItemOID="IT.SUPPCM.QORIG" Value="Assigned"/>
<ItemData ItemOID="IT.SUPPCM.QEVAL" Value="CLINICAL STUDY SPONSOR"/>
</ItemGroupData>
<ItemGroupData ItemGroupOID="IG.SUPPCM" data:ItemGroupDataSeq="25">
<ItemData ItemOID="IT.STUDYID" Value="CDISC01"/>
<ItemData ItemOID="IT.RDOMAIN" Value="CM"/>
<ItemData ItemOID="IT.USUBJID" Value="CDISC01.100008"/>
<ItemData ItemOID="IT.SUPPCM.IDVAR" Value="CMSEQ"/>
<ItemData ItemOID="IT.SUPPCM.IDVARVAL" Value="9"/>
<ItemData ItemOID="IT.SUPPCM.QNAM" Value="ATC4CODE"/>
<ItemData ItemOID="IT.SUPPCM.QLABEL" Value="WHO_DRUG ATC Level 4 Code"/>
<ItemData ItemOID="IT.SUPPCM.QVAL" Value="A02BC"/>
<ItemData ItemOID="IT.SUPPCM.QORIG" Value="Assigned"/>
<ItemData ItemOID="IT.SUPPCM.QEVAL" Value="CLINICAL STUDY SPONSOR"/>
</ItemGroupData>
<ItemGroupData ItemGroupOID="IG.SUPPCM" data:ItemGroupDataSeq="26">
<ItemData ItemOID="IT.STUDYID" Value="CDISC01"/>
<ItemData ItemOID="IT.RDOMAIN" Value="CM"/>
<ItemData ItemOID="IT.USUBJID" Value="CDISC01.100008"/>
<ItemData ItemOID="IT.SUPPCM.IDVAR" Value="CMSEQ"/>
<ItemData ItemOID="IT.SUPPCM.IDVARVAL" Value="9"/>
<ItemData ItemOID="IT.SUPPCM.QNAM" Value="ATC4TERM"/>
<ItemData ItemOID="IT.SUPPCM.QLABEL" Value="ATC4 Drug Class Term"/>
<ItemData ItemOID="IT.SUPPCM.QVAL" Value="PROTON PUMP INHIBITORS"/>
<ItemData ItemOID="IT.SUPPCM.QORIG" Value="Assigned"/>
<ItemData ItemOID="IT.SUPPCM.QEVAL" Value="CLINICAL STUDY SPONSOR"/>
</ItemGroupData>
<ItemGroupData ItemGroupOID="IG.SUPPCM" data:ItemGroupDataSeq="27">
<ItemData ItemOID="IT.STUDYID" Value="CDISC01"/>
<ItemData ItemOID="IT.RDOMAIN" Value="CM"/>
<ItemData ItemOID="IT.USUBJID" Value="CDISC01.100008"/>
<ItemData ItemOID="IT.SUPPCM.IDVAR" Value="CMSEQ"/>
<ItemData ItemOID="IT.SUPPCM.IDVARVAL" Value="9"/>
<ItemData ItemOID="IT.SUPPCM.QNAM" Value="CPREFCD"/>
<ItemData ItemOID="IT.SUPPCM.QLABEL" Value="WHO_DRUG Drug Code"/>
<ItemData ItemOID="IT.SUPPCM.QVAL" Value="01159001011"/>
<ItemData ItemOID="IT.SUPPCM.QORIG" Value="Assigned"/>
<ItemData ItemOID="IT.SUPPCM.QEVAL" Value="CLINICAL STUDY SPONSOR"/>
</ItemGroupData>
<ItemGroupData ItemGroupOID="IG.SUPPCM" data:ItemGroupDataSeq="28">
<ItemData ItemOID="IT.STUDYID" Value="CDISC01"/>
<ItemData ItemOID="IT.RDOMAIN" Value="CM"/>
<ItemData ItemOID="IT.USUBJID" Value="CDISC01.100008"/>
<ItemData ItemOID="IT.SUPPCM.IDVAR" Value="CMSEQ"/>
<ItemData ItemOID="IT.SUPPCM.IDVARVAL" Value="10"/>
<ItemData ItemOID="IT.SUPPCM.QNAM" Value="ATC4CODE"/>
<ItemData ItemOID="IT.SUPPCM.QLABEL" Value="WHO_DRUG ATC Level 4 Code"/>
<ItemData ItemOID="IT.SUPPCM.QVAL" Value="N02BA"/>
<ItemData ItemOID="IT.SUPPCM.QORIG" Value="Assigned"/>
<ItemData ItemOID="IT.SUPPCM.QEVAL" Value="CLINICAL STUDY SPONSOR"/>
</ItemGroupData>
<ItemGroupData ItemGroupOID="IG.SUPPCM" data:ItemGroupDataSeq="29">
<ItemData ItemOID="IT.STUDYID" Value="CDISC01"/>
<ItemData ItemOID="IT.RDOMAIN" Value="CM"/>
<ItemData ItemOID="IT.USUBJID" Value="CDISC01.100008"/>
<ItemData ItemOID="IT.SUPPCM.IDVAR" Value="CMSEQ"/>
<ItemData ItemOID="IT.SUPPCM.IDVARVAL" Value="10"/>
<ItemData ItemOID="IT.SUPPCM.QNAM" Value="ATC4TERM"/>
<ItemData ItemOID="IT.SUPPCM.QLABEL" Value="ATC4 Drug Class Term"/>
<ItemData ItemOID="IT.SUPPCM.QVAL" Value="SALICYLIC ACID AND DERIVATIVES"/>
<ItemData ItemOID="IT.SUPPCM.QORIG" Value="Assigned"/>
<ItemData ItemOID="IT.SUPPCM.QEVAL" Value="CLINICAL STUDY SPONSOR"/>
</ItemGroupData>
<ItemGroupData ItemGroupOID="IG.SUPPCM" data:ItemGroupDataSeq="30">
<ItemData ItemOID="IT.STUDYID" Value="CDISC01"/>
<ItemData ItemOID="IT.RDOMAIN" Value="CM"/>
<ItemData ItemOID="IT.USUBJID" Value="CDISC01.100008"/>
<ItemData ItemOID="IT.SUPPCM.IDVAR" Value="CMSEQ"/>
<ItemData ItemOID="IT.SUPPCM.IDVARVAL" Value="10"/>
<ItemData ItemOID="IT.SUPPCM.QNAM" Value="CPREFCD"/>
<ItemData ItemOID="IT.SUPPCM.QLABEL" Value="WHO_DRUG Drug Code"/>
<ItemData ItemOID="IT.SUPPCM.QVAL" Value="00002701014"/>
<ItemData ItemOID="IT.SUPPCM.QORIG" Value="Assigned"/>
<ItemData ItemOID="IT.SUPPCM.QEVAL" Value="CLINICAL STUDY SPONSOR"/>
</ItemGroupData>
<ItemGroupData ItemGroupOID="IG.SUPPCM" data:ItemGroupDataSeq="31">
<ItemData ItemOID="IT.STUDYID" Value="CDISC01"/>
<ItemData ItemOID="IT.RDOMAIN" Value="CM"/>
<ItemData ItemOID="IT.USUBJID" Value="CDISC01.100008"/>
<ItemData ItemOID="IT.SUPPCM.IDVAR" Value="CMSEQ"/>
<ItemData ItemOID="IT.SUPPCM.IDVARVAL" Value="11"/>
<ItemData ItemOID="IT.SUPPCM.QNAM" Value="ATC4CODE"/>
<ItemData ItemOID="IT.SUPPCM.QLABEL" Value="WHO_DRUG ATC Level 4 Code"/>
<ItemData ItemOID="IT.SUPPCM.QVAL" Value="H03AA"/>
<ItemData ItemOID="IT.SUPPCM.QORIG" Value="Assigned"/>
<ItemData ItemOID="IT.SUPPCM.QEVAL" Value="CLINICAL STUDY SPONSOR"/>
</ItemGroupData>
<ItemGroupData ItemGroupOID="IG.SUPPCM" data:ItemGroupDataSeq="32">
<ItemData ItemOID="IT.STUDYID" Value="CDISC01"/>
<ItemData ItemOID="IT.RDOMAIN" Value="CM"/>
<ItemData ItemOID="IT.USUBJID" Value="CDISC01.100008"/>
<ItemData ItemOID="IT.SUPPCM.IDVAR" Value="CMSEQ"/>
<ItemData ItemOID="IT.SUPPCM.IDVARVAL" Value="11"/>
<ItemData ItemOID="IT.SUPPCM.QNAM" Value="ATC4TERM"/>
<ItemData ItemOID="IT.SUPPCM.QLABEL" Value="ATC4 Drug Class Term"/>
<ItemData ItemOID="IT.SUPPCM.QVAL" Value="THYROID HORMONES"/>
<ItemData ItemOID="IT.SUPPCM.QORIG" Value="Assigned"/>
<ItemData ItemOID="IT.SUPPCM.QEVAL" Value="CLINICAL STUDY SPONSOR"/>
</ItemGroupData>
<ItemGroupData ItemGroupOID="IG.SUPPCM" data:ItemGroupDataSeq="33">
<ItemData ItemOID="IT.STUDYID" Value="CDISC01"/>
<ItemData ItemOID="IT.RDOMAIN" Value="CM"/>
<ItemData ItemOID="IT.USUBJID" Value="CDISC01.100008"/>
<ItemData ItemOID="IT.SUPPCM.IDVAR" Value="CMSEQ"/>
<ItemData ItemOID="IT.SUPPCM.IDVARVAL" Value="11"/>
<ItemData ItemOID="IT.SUPPCM.QNAM" Value="CPREFCD"/>
<ItemData ItemOID="IT.SUPPCM.QLABEL" Value="WHO_DRUG Drug Code"/>
<ItemData ItemOID="IT.SUPPCM.QVAL" Value="00068002035"/>
<ItemData ItemOID="IT.SUPPCM.QORIG" Value="Assigned"/>
<ItemData ItemOID="IT.SUPPCM.QEVAL" Value="CLINICAL STUDY SPONSOR"/>
</ItemGroupData>
<ItemGroupData ItemGroupOID="IG.SUPPCM" data:ItemGroupDataSeq="34">
<ItemData ItemOID="IT.STUDYID" Value="CDISC01"/>
<ItemData ItemOID="IT.RDOMAIN" Value="CM"/>
<ItemData ItemOID="IT.USUBJID" Value="CDISC01.100014"/>
<ItemData ItemOID="IT.SUPPCM.IDVAR" Value="CMSEQ"/>
<ItemData ItemOID="IT.SUPPCM.IDVARVAL" Value="1"/>
<ItemData ItemOID="IT.SUPPCM.QNAM" Value="ATC4CODE"/>
<ItemData ItemOID="IT.SUPPCM.QLABEL" Value="WHO_DRUG ATC Level 4 Code"/>
<ItemData ItemOID="IT.SUPPCM.QVAL" Value="A02BC"/>
<ItemData ItemOID="IT.SUPPCM.QORIG" Value="Assigned"/>
<ItemData ItemOID="IT.SUPPCM.QEVAL" Value="CLINICAL STUDY SPONSOR"/>
</ItemGroupData>
<ItemGroupData ItemGroupOID="IG.SUPPCM" data:ItemGroupDataSeq="35">
<ItemData ItemOID="IT.STUDYID" Value="CDISC01"/>
<ItemData ItemOID="IT.RDOMAIN" Value="CM"/>
<ItemData ItemOID="IT.USUBJID" Value="CDISC01.100014"/>
<ItemData ItemOID="IT.SUPPCM.IDVAR" Value="CMSEQ"/>
<ItemData ItemOID="IT.SUPPCM.IDVARVAL" Value="1"/>
<ItemData ItemOID="IT.SUPPCM.QNAM" Value="ATC4TERM"/>
<ItemData ItemOID="IT.SUPPCM.QLABEL" Value="ATC4 Drug Class Term"/>
<ItemData ItemOID="IT.SUPPCM.QVAL" Value="PROTON PUMP INHIBITORS"/>
<ItemData ItemOID="IT.SUPPCM.QORIG" Value="Assigned"/>
<ItemData ItemOID="IT.SUPPCM.QEVAL" Value="CLINICAL STUDY SPONSOR"/>
</ItemGroupData>
<ItemGroupData ItemGroupOID="IG.SUPPCM" data:ItemGroupDataSeq="36">
<ItemData ItemOID="IT.STUDYID" Value="CDISC01"/>
<ItemData ItemOID="IT.RDOMAIN" Value="CM"/>
<ItemData ItemOID="IT.USUBJID" Value="CDISC01.100014"/>
<ItemData ItemOID="IT.SUPPCM.IDVAR" Value="CMSEQ"/>
<ItemData ItemOID="IT.SUPPCM.IDVARVAL" Value="1"/>
<ItemData ItemOID="IT.SUPPCM.QNAM" Value="CPREFCD"/>
<ItemData ItemOID="IT.SUPPCM.QLABEL" Value="WHO_DRUG Drug Code"/>
<ItemData ItemOID="IT.SUPPCM.QVAL" Value="01159001001"/>
<ItemData ItemOID="IT.SUPPCM.QORIG" Value="Assigned"/>
<ItemData ItemOID="IT.SUPPCM.QEVAL" Value="CLINICAL STUDY SPONSOR"/>
</ItemGroupData>
<ItemGroupData ItemGroupOID="IG.SUPPCM" data:ItemGroupDataSeq="37">
<ItemData ItemOID="IT.STUDYID" Value="CDISC01"/>
<ItemData ItemOID="IT.RDOMAIN" Value="CM"/>
<ItemData ItemOID="IT.USUBJID" Value="CDISC01.100014"/>
<ItemData ItemOID="IT.SUPPCM.IDVAR" Value="CMSEQ"/>
<ItemData ItemOID="IT.SUPPCM.IDVARVAL" Value="2"/>
<ItemData ItemOID="IT.SUPPCM.QNAM" Value="ATC4CODE"/>
<ItemData ItemOID="IT.SUPPCM.QLABEL" Value="WHO_DRUG ATC Level 4 Code"/>
<ItemData ItemOID="IT.SUPPCM.QVAL" Value="N05CD"/>
<ItemData ItemOID="IT.SUPPCM.QORIG" Value="Assigned"/>
<ItemData ItemOID="IT.SUPPCM.QEVAL" Value="CLINICAL STUDY SPONSOR"/>
</ItemGroupData>
<ItemGroupData ItemGroupOID="IG.SUPPCM" data:ItemGroupDataSeq="38">
<ItemData ItemOID="IT.STUDYID" Value="CDISC01"/>
<ItemData ItemOID="IT.RDOMAIN" Value="CM"/>
<ItemData ItemOID="IT.USUBJID" Value="CDISC01.100014"/>
<ItemData ItemOID="IT.SUPPCM.IDVAR" Value="CMSEQ"/>
<ItemData ItemOID="IT.SUPPCM.IDVARVAL" Value="2"/>
<ItemData ItemOID="IT.SUPPCM.QNAM" Value="ATC4TERM"/>
<ItemData ItemOID="IT.SUPPCM.QLABEL" Value="ATC4 Drug Class Term"/>
<ItemData ItemOID="IT.SUPPCM.QVAL" Value="BENZODIAZEPINE DERIVATIVES"/>
<ItemData ItemOID="IT.SUPPCM.QORIG" Value="Assigned"/>
<ItemData ItemOID="IT.SUPPCM.QEVAL" Value="CLINICAL STUDY SPONSOR"/>
</ItemGroupData>
<ItemGroupData ItemGroupOID="IG.SUPPCM" data:ItemGroupDataSeq="39">
<ItemData ItemOID="IT.STUDYID" Value="CDISC01"/>
<ItemData ItemOID="IT.RDOMAIN" Value="CM"/>
<ItemData ItemOID="IT.USUBJID" Value="CDISC01.100014"/>
<ItemData ItemOID="IT.SUPPCM.IDVAR" Value="CMSEQ"/>
<ItemData ItemOID="IT.SUPPCM.IDVARVAL" Value="2"/>
<ItemData ItemOID="IT.SUPPCM.QNAM" Value="CPREFCD"/>
<ItemData ItemOID="IT.SUPPCM.QLABEL" Value="WHO_DRUG Drug Code"/>
<ItemData ItemOID="IT.SUPPCM.QVAL" Value="00634101001"/>
<ItemData ItemOID="IT.SUPPCM.QORIG" Value="Assigned"/>
<ItemData ItemOID="IT.SUPPCM.QEVAL" Value="CLINICAL STUDY SPONSOR"/>
</ItemGroupData>
<ItemGroupData ItemGroupOID="IG.SUPPCM" data:ItemGroupDataSeq="40">
<ItemData ItemOID="IT.STUDYID" Value="CDISC01"/>
<ItemData ItemOID="IT.RDOMAIN" Value="CM"/>
<ItemData ItemOID="IT.USUBJID" Value="CDISC01.100014"/>
<ItemData ItemOID="IT.SUPPCM.IDVAR" Value="CMSEQ"/>
<ItemData ItemOID="IT.SUPPCM.IDVARVAL" Value="3"/>
<ItemData ItemOID="IT.SUPPCM.QNAM" Value="ATC4CODE"/>
<ItemData ItemOID="IT.SUPPCM.QLABEL" Value="WHO_DRUG ATC Level 4 Code"/>
<ItemData ItemOID="IT.SUPPCM.QVAL" Value="A04AD"/>
<ItemData ItemOID="IT.SUPPCM.QORIG" Value="Assigned"/>
<ItemData ItemOID="IT.SUPPCM.QEVAL" Value="CLINICAL STUDY SPONSOR"/>
</ItemGroupData>
<ItemGroupData ItemGroupOID="IG.SUPPCM" data:ItemGroupDataSeq="41">
<ItemData ItemOID="IT.STUDYID" Value="CDISC01"/>
<ItemData ItemOID="IT.RDOMAIN" Value="CM"/>
<ItemData ItemOID="IT.USUBJID" Value="CDISC01.100014"/>
<ItemData ItemOID="IT.SUPPCM.IDVAR" Value="CMSEQ"/>
<ItemData ItemOID="IT.SUPPCM.IDVARVAL" Value="3"/>
<ItemData ItemOID="IT.SUPPCM.QNAM" Value="ATC4TERM"/>
<ItemData ItemOID="IT.SUPPCM.QLABEL" Value="ATC4 Drug Class Term"/>
<ItemData ItemOID="IT.SUPPCM.QVAL" Value="OTHER ANTIEMETICS"/>
<ItemData ItemOID="IT.SUPPCM.QORIG" Value="Assigned"/>
<ItemData ItemOID="IT.SUPPCM.QEVAL" Value="CLINICAL STUDY SPONSOR"/>
</ItemGroupData>
<ItemGroupData ItemGroupOID="IG.SUPPCM" data:ItemGroupDataSeq="42">
<ItemData ItemOID="IT.STUDYID" Value="CDISC01"/>
<ItemData ItemOID="IT.RDOMAIN" Value="CM"/>
<ItemData ItemOID="IT.USUBJID" Value="CDISC01.100014"/>
<ItemData ItemOID="IT.SUPPCM.IDVAR" Value="CMSEQ"/>
<ItemData ItemOID="IT.SUPPCM.IDVARVAL" Value="3"/>
<ItemData ItemOID="IT.SUPPCM.QNAM" Value="CPREFCD"/>
<ItemData ItemOID="IT.SUPPCM.QLABEL" Value="WHO_DRUG Drug Code"/>
<ItemData ItemOID="IT.SUPPCM.QVAL" Value="00013302002"/>
<ItemData ItemOID="IT.SUPPCM.QORIG" Value="Assigned"/>
<ItemData ItemOID="IT.SUPPCM.QEVAL" Value="CLINICAL STUDY SPONSOR"/>
</ItemGroupData>
<ItemGroupData ItemGroupOID="IG.SUPPCM" data:ItemGroupDataSeq="43">
<ItemData ItemOID="IT.STUDYID" Value="CDISC01"/>
<ItemData ItemOID="IT.RDOMAIN" Value="CM"/>
<ItemData ItemOID="IT.USUBJID" Value="CDISC01.100014"/>
<ItemData ItemOID="IT.SUPPCM.IDVAR" Value="CMSEQ"/>
<ItemData ItemOID="IT.SUPPCM.IDVARVAL" Value="4"/>
<ItemData ItemOID="IT.SUPPCM.QNAM" Value="ATC4CODE"/>
<ItemData ItemOID="IT.SUPPCM.QLABEL" Value="WHO_DRUG ATC Level 4 Code"/>
<ItemData ItemOID="IT.SUPPCM.QVAL" Value="A02BC"/>
<ItemData ItemOID="IT.SUPPCM.QORIG" Value="Assigned"/>
<ItemData ItemOID="IT.SUPPCM.QEVAL" Value="CLINICAL STUDY SPONSOR"/>
</ItemGroupData>
<ItemGroupData ItemGroupOID="IG.SUPPCM" data:ItemGroupDataSeq="44">
<ItemData ItemOID="IT.STUDYID" Value="CDISC01"/>
<ItemData ItemOID="IT.RDOMAIN" Value="CM"/>
<ItemData ItemOID="IT.USUBJID" Value="CDISC01.100014"/>
<ItemData ItemOID="IT.SUPPCM.IDVAR" Value="CMSEQ"/>
<ItemData ItemOID="IT.SUPPCM.IDVARVAL" Value="4"/>
<ItemData ItemOID="IT.SUPPCM.QNAM" Value="ATC4TERM"/>
<ItemData ItemOID="IT.SUPPCM.QLABEL" Value="ATC4 Drug Class Term"/>
<ItemData ItemOID="IT.SUPPCM.QVAL" Value="PROTON PUMP INHIBITORS"/>
<ItemData ItemOID="IT.SUPPCM.QORIG" Value="Assigned"/>
<ItemData ItemOID="IT.SUPPCM.QEVAL" Value="CLINICAL STUDY SPONSOR"/>
</ItemGroupData>
<ItemGroupData ItemGroupOID="IG.SUPPCM" data:ItemGroupDataSeq="45">
<ItemData ItemOID="IT.STUDYID" Value="CDISC01"/>
<ItemData ItemOID="IT.RDOMAIN" Value="CM"/>
<ItemData ItemOID="IT.USUBJID" Value="CDISC01.100014"/>
<ItemData ItemOID="IT.SUPPCM.IDVAR" Value="CMSEQ"/>
<ItemData ItemOID="IT.SUPPCM.IDVARVAL" Value="4"/>
<ItemData ItemOID="IT.SUPPCM.QNAM" Value="CPREFCD"/>
<ItemData ItemOID="IT.SUPPCM.QLABEL" Value="WHO_DRUG Drug Code"/>
<ItemData ItemOID="IT.SUPPCM.QVAL" Value="01263202001"/>
<ItemData ItemOID="IT.SUPPCM.QORIG" Value="Assigned"/>
<ItemData ItemOID="IT.SUPPCM.QEVAL" Value="CLINICAL STUDY SPONSOR"/>
</ItemGroupData>
<ItemGroupData ItemGroupOID="IG.SUPPCM" data:ItemGroupDataSeq="46">
<ItemData ItemOID="IT.STUDYID" Value="CDISC01"/>
<ItemData ItemOID="IT.RDOMAIN" Value="CM"/>
<ItemData ItemOID="IT.USUBJID" Value="CDISC01.200001"/>
<ItemData ItemOID="IT.SUPPCM.IDVAR" Value="CMSEQ"/>
<ItemData ItemOID="IT.SUPPCM.IDVARVAL" Value="1"/>
<ItemData ItemOID="IT.SUPPCM.QNAM" Value="ATC4CODE"/>
<ItemData ItemOID="IT.SUPPCM.QLABEL" Value="WHO_DRUG ATC Level 4 Code"/>
<ItemData ItemOID="IT.SUPPCM.QVAL" Value="H03AA"/>
<ItemData ItemOID="IT.SUPPCM.QORIG" Value="Assigned"/>
<ItemData ItemOID="IT.SUPPCM.QEVAL" Value="CLINICAL STUDY SPONSOR"/>
</ItemGroupData>
<ItemGroupData ItemGroupOID="IG.SUPPCM" data:ItemGroupDataSeq="47">
<ItemData ItemOID="IT.STUDYID" Value="CDISC01"/>
<ItemData ItemOID="IT.RDOMAIN" Value="CM"/>
<ItemData ItemOID="IT.USUBJID" Value="CDISC01.200001"/>
<ItemData ItemOID="IT.SUPPCM.IDVAR" Value="CMSEQ"/>
<ItemData ItemOID="IT.SUPPCM.IDVARVAL" Value="1"/>
<ItemData ItemOID="IT.SUPPCM.QNAM" Value="ATC4TERM"/>
<ItemData ItemOID="IT.SUPPCM.QLABEL" Value="ATC4 Drug Class Term"/>
<ItemData ItemOID="IT.SUPPCM.QVAL" Value="THYROID HORMONES"/>
<ItemData ItemOID="IT.SUPPCM.QORIG" Value="Assigned"/>
<ItemData ItemOID="IT.SUPPCM.QEVAL" Value="CLINICAL STUDY SPONSOR"/>
</ItemGroupData>
<ItemGroupData ItemGroupOID="IG.SUPPCM" data:ItemGroupDataSeq="48">
<ItemData ItemOID="IT.STUDYID" Value="CDISC01"/>
<ItemData ItemOID="IT.RDOMAIN" Value="CM"/>
<ItemData ItemOID="IT.USUBJID" Value="CDISC01.200001"/>
<ItemData ItemOID="IT.SUPPCM.IDVAR" Value="CMSEQ"/>
<ItemData ItemOID="IT.SUPPCM.IDVARVAL" Value="1"/>
<ItemData ItemOID="IT.SUPPCM.QNAM" Value="CPREFCD"/>
<ItemData ItemOID="IT.SUPPCM.QLABEL" Value="WHO_DRUG Drug Code"/>
<ItemData ItemOID="IT.SUPPCM.QVAL" Value="00068002001"/>
<ItemData ItemOID="IT.SUPPCM.QORIG" Value="Assigned"/>
<ItemData ItemOID="IT.SUPPCM.QEVAL" Value="CLINICAL STUDY SPONSOR"/>
</ItemGroupData>
<ItemGroupData ItemGroupOID="IG.SUPPCM" data:ItemGroupDataSeq="49">
<ItemData ItemOID="IT.STUDYID" Value="CDISC01"/>
<ItemData ItemOID="IT.RDOMAIN" Value="CM"/>
<ItemData ItemOID="IT.USUBJID" Value="CDISC01.200001"/>
<ItemData ItemOID="IT.SUPPCM.IDVAR" Value="CMSEQ"/>
<ItemData ItemOID="IT.SUPPCM.IDVARVAL" Value="2"/>
<ItemData ItemOID="IT.SUPPCM.QNAM" Value="ATC4CODE"/>
<ItemData ItemOID="IT.SUPPCM.QLABEL" Value="WHO_DRUG ATC Level 4 Code"/>
<ItemData ItemOID="IT.SUPPCM.QVAL" Value="A11AA"/>
<ItemData ItemOID="IT.SUPPCM.QORIG" Value="Assigned"/>
<ItemData ItemOID="IT.SUPPCM.QEVAL" Value="CLINICAL STUDY SPONSOR"/>
</ItemGroupData>
<ItemGroupData ItemGroupOID="IG.SUPPCM" data:ItemGroupDataSeq="50">
<ItemData ItemOID="IT.STUDYID" Value="CDISC01"/>
<ItemData ItemOID="IT.RDOMAIN" Value="CM"/>
<ItemData ItemOID="IT.USUBJID" Value="CDISC01.200001"/>
<ItemData ItemOID="IT.SUPPCM.IDVAR" Value="CMSEQ"/>
<ItemData ItemOID="IT.SUPPCM.IDVARVAL" Value="2"/>
<ItemData ItemOID="IT.SUPPCM.QNAM" Value="ATC4TERM"/>
<ItemData ItemOID="IT.SUPPCM.QLABEL" Value="ATC4 Drug Class Term"/>
<ItemData ItemOID="IT.SUPPCM.QVAL" Value="MULTIVITAMINS WITH MINERALS"/>
<ItemData ItemOID="IT.SUPPCM.QORIG" Value="Assigned"/>
<ItemData ItemOID="IT.SUPPCM.QEVAL" Value="CLINICAL STUDY SPONSOR"/>
</ItemGroupData>
<ItemGroupData ItemGroupOID="IG.SUPPCM" data:ItemGroupDataSeq="51">
<ItemData ItemOID="IT.STUDYID" Value="CDISC01"/>
<ItemData ItemOID="IT.RDOMAIN" Value="CM"/>
<ItemData ItemOID="IT.USUBJID" Value="CDISC01.200001"/>
<ItemData ItemOID="IT.SUPPCM.IDVAR" Value="CMSEQ"/>
<ItemData ItemOID="IT.SUPPCM.IDVARVAL" Value="2"/>
<ItemData ItemOID="IT.SUPPCM.QNAM" Value="CPREFCD"/>
<ItemData ItemOID="IT.SUPPCM.QLABEL" Value="WHO_DRUG Drug Code"/>
<ItemData ItemOID="IT.SUPPCM.QVAL" Value="00554501001"/>
<ItemData ItemOID="IT.SUPPCM.QORIG" Value="Assigned"/>
<ItemData ItemOID="IT.SUPPCM.QEVAL" Value="CLINICAL STUDY SPONSOR"/>
</ItemGroupData>
<ItemGroupData ItemGroupOID="IG.SUPPCM" data:ItemGroupDataSeq="52">
<ItemData ItemOID="IT.STUDYID" Value="CDISC01"/>
<ItemData ItemOID="IT.RDOMAIN" Value="CM"/>
<ItemData ItemOID="IT.USUBJID" Value="CDISC01.200001"/>
<ItemData ItemOID="IT.SUPPCM.IDVAR" Value="CMSEQ"/>
<ItemData ItemOID="IT.SUPPCM.IDVARVAL" Value="3"/>
<ItemData ItemOID="IT.SUPPCM.QNAM" Value="ATC4CODE"/>
<ItemData ItemOID="IT.SUPPCM.QLABEL" Value="WHO_DRUG ATC Level 4 Code"/>
<ItemData ItemOID="IT.SUPPCM.QVAL" Value="V03AX"/>
<ItemData ItemOID="IT.SUPPCM.QORIG" Value="Assigned"/>
<ItemData ItemOID="IT.SUPPCM.QEVAL" Value="CLINICAL STUDY SPONSOR"/>
</ItemGroupData>
<ItemGroupData ItemGroupOID="IG.SUPPCM" data:ItemGroupDataSeq="53">
<ItemData ItemOID="IT.STUDYID" Value="CDISC01"/>
<ItemData ItemOID="IT.RDOMAIN" Value="CM"/>
<ItemData ItemOID="IT.USUBJID" Value="CDISC01.200001"/>
<ItemData ItemOID="IT.SUPPCM.IDVAR" Value="CMSEQ"/>
<ItemData ItemOID="IT.SUPPCM.IDVARVAL" Value="3"/>
<ItemData ItemOID="IT.SUPPCM.QNAM" Value="ATC4TERM"/>
<ItemData ItemOID="IT.SUPPCM.QLABEL" Value="ATC4 Drug Class Term"/>
<ItemData ItemOID="IT.SUPPCM.QVAL" Value="OTHER THERAPEUTIC PRODUCTS"/>
<ItemData ItemOID="IT.SUPPCM.QORIG" Value="Assigned"/>
<ItemData ItemOID="IT.SUPPCM.QEVAL" Value="CLINICAL STUDY SPONSOR"/>
</ItemGroupData>
<ItemGroupData ItemGroupOID="IG.SUPPCM" data:ItemGroupDataSeq="54">
<ItemData ItemOID="IT.STUDYID" Value="CDISC01"/>
<ItemData ItemOID="IT.RDOMAIN" Value="CM"/>
<ItemData ItemOID="IT.USUBJID" Value="CDISC01.200001"/>
<ItemData ItemOID="IT.SUPPCM.IDVAR" Value="CMSEQ"/>
<ItemData ItemOID="IT.SUPPCM.IDVARVAL" Value="3"/>
<ItemData ItemOID="IT.SUPPCM.QNAM" Value="CPREFCD"/>
<ItemData ItemOID="IT.SUPPCM.QLABEL" Value="WHO_DRUG Drug Code"/>
<ItemData ItemOID="IT.SUPPCM.QVAL" Value="00567201001"/>
<ItemData ItemOID="IT.SUPPCM.QORIG" Value="Assigned"/>
<ItemData ItemOID="IT.SUPPCM.QEVAL" Value="CLINICAL STUDY SPONSOR"/>
</ItemGroupData>
<ItemGroupData ItemGroupOID="IG.SUPPCM" data:ItemGroupDataSeq="55">
<ItemData ItemOID="IT.STUDYID" Value="CDISC01"/>
<ItemData ItemOID="IT.RDOMAIN" Value="CM"/>
<ItemData ItemOID="IT.USUBJID" Value="CDISC01.200001"/>
<ItemData ItemOID="IT.SUPPCM.IDVAR" Value="CMSEQ"/>
<ItemData ItemOID="IT.SUPPCM.IDVARVAL" Value="4"/>
<ItemData ItemOID="IT.SUPPCM.QNAM" Value="ATC4CODE"/>
<ItemData ItemOID="IT.SUPPCM.QLABEL" Value="WHO_DRUG ATC Level 4 Code"/>
<ItemData ItemOID="IT.SUPPCM.QVAL" Value="V03AX"/>
<ItemData ItemOID="IT.SUPPCM.QORIG" Value="Assigned"/>
<ItemData ItemOID="IT.SUPPCM.QEVAL" Value="CLINICAL STUDY SPONSOR"/>
</ItemGroupData>
<ItemGroupData ItemGroupOID="IG.SUPPCM" data:ItemGroupDataSeq="56">
<ItemData ItemOID="IT.STUDYID" Value="CDISC01"/>
<ItemData ItemOID="IT.RDOMAIN" Value="CM"/>
<ItemData ItemOID="IT.USUBJID" Value="CDISC01.200001"/>
<ItemData ItemOID="IT.SUPPCM.IDVAR" Value="CMSEQ"/>
<ItemData ItemOID="IT.SUPPCM.IDVARVAL" Value="4"/>
<ItemData ItemOID="IT.SUPPCM.QNAM" Value="ATC4TERM"/>
<ItemData ItemOID="IT.SUPPCM.QLABEL" Value="ATC4 Drug Class Term"/>
<ItemData ItemOID="IT.SUPPCM.QVAL" Value="OTHER THERAPEUTIC PRODUCTS"/>
<ItemData ItemOID="IT.SUPPCM.QORIG" Value="Assigned"/>
<ItemData ItemOID="IT.SUPPCM.QEVAL" Value="CLINICAL STUDY SPONSOR"/>
</ItemGroupData>
<ItemGroupData ItemGroupOID="IG.SUPPCM" data:ItemGroupDataSeq="57">
<ItemData ItemOID="IT.STUDYID" Value="CDISC01"/>
<ItemData ItemOID="IT.RDOMAIN" Value="CM"/>
<ItemData ItemOID="IT.USUBJID" Value="CDISC01.200001"/>
<ItemData ItemOID="IT.SUPPCM.IDVAR" Value="CMSEQ"/>
<ItemData ItemOID="IT.SUPPCM.IDVARVAL" Value="4"/>
<ItemData ItemOID="IT.SUPPCM.QNAM" Value="CPREFCD"/>
<ItemData ItemOID="IT.SUPPCM.QLABEL" Value="WHO_DRUG Drug Code"/>
<ItemData ItemOID="IT.SUPPCM.QVAL" Value="01003101001"/>
<ItemData ItemOID="IT.SUPPCM.QORIG" Value="Assigned"/>
<ItemData ItemOID="IT.SUPPCM.QEVAL" Value="CLINICAL STUDY SPONSOR"/>
</ItemGroupData>
<ItemGroupData ItemGroupOID="IG.SUPPCM" data:ItemGroupDataSeq="58">
<ItemData ItemOID="IT.STUDYID" Value="CDISC01"/>
<ItemData ItemOID="IT.RDOMAIN" Value="CM"/>
<ItemData ItemOID="IT.USUBJID" Value="CDISC01.200001"/>
<ItemData ItemOID="IT.SUPPCM.IDVAR" Value="CMSEQ"/>
<ItemData ItemOID="IT.SUPPCM.IDVARVAL" Value="5"/>
<ItemData ItemOID="IT.SUPPCM.QNAM" Value="ATC4CODE"/>
<ItemData ItemOID="IT.SUPPCM.QLABEL" Value="WHO_DRUG ATC Level 4 Code"/>
<ItemData ItemOID="IT.SUPPCM.QVAL" Value="A12AA"/>
<ItemData ItemOID="IT.SUPPCM.QORIG" Value="Assigned"/>
<ItemData ItemOID="IT.SUPPCM.QEVAL" Value="CLINICAL STUDY SPONSOR"/>
</ItemGroupData>
<ItemGroupData ItemGroupOID="IG.SUPPCM" data:ItemGroupDataSeq="59">
<ItemData ItemOID="IT.STUDYID" Value="CDISC01"/>
<ItemData ItemOID="IT.RDOMAIN" Value="CM"/>
<ItemData ItemOID="IT.USUBJID" Value="CDISC01.200001"/>
<ItemData ItemOID="IT.SUPPCM.IDVAR" Value="CMSEQ"/>
<ItemData ItemOID="IT.SUPPCM.IDVARVAL" Value="5"/>
<ItemData ItemOID="IT.SUPPCM.QNAM" Value="ATC4TERM"/>
<ItemData ItemOID="IT.SUPPCM.QLABEL" Value="ATC4 Drug Class Term"/>
<ItemData ItemOID="IT.SUPPCM.QVAL" Value="CALCIUM"/>
<ItemData ItemOID="IT.SUPPCM.QORIG" Value="Assigned"/>
<ItemData ItemOID="IT.SUPPCM.QEVAL" Value="CLINICAL STUDY SPONSOR"/>
</ItemGroupData>
<ItemGroupData ItemGroupOID="IG.SUPPCM" data:ItemGroupDataSeq="60">
<ItemData ItemOID="IT.STUDYID" Value="CDISC01"/>
<ItemData ItemOID="IT.RDOMAIN" Value="CM"/>
<ItemData ItemOID="IT.USUBJID" Value="CDISC01.200001"/>
<ItemData ItemOID="IT.SUPPCM.IDVAR" Value="CMSEQ"/>
<ItemData ItemOID="IT.SUPPCM.IDVARVAL" Value="5"/>
<ItemData ItemOID="IT.SUPPCM.QNAM" Value="CPREFCD"/>
<ItemData ItemOID="IT.SUPPCM.QLABEL" Value="WHO_DRUG Drug Code"/>
<ItemData ItemOID="IT.SUPPCM.QVAL" Value="00108001016"/>
<ItemData ItemOID="IT.SUPPCM.QORIG" Value="Assigned"/>
<ItemData ItemOID="IT.SUPPCM.QEVAL" Value="CLINICAL STUDY SPONSOR"/>
</ItemGroupData>
<ItemGroupData ItemGroupOID="IG.SUPPCM" data:ItemGroupDataSeq="61">
<ItemData ItemOID="IT.STUDYID" Value="CDISC01"/>
<ItemData ItemOID="IT.RDOMAIN" Value="CM"/>
<ItemData ItemOID="IT.USUBJID" Value="CDISC01.200001"/>
<ItemData ItemOID="IT.SUPPCM.IDVAR" Value="CMSEQ"/>
<ItemData ItemOID="IT.SUPPCM.IDVARVAL" Value="6"/>
<ItemData ItemOID="IT.SUPPCM.QNAM" Value="ATC4CODE"/>
<ItemData ItemOID="IT.SUPPCM.QLABEL" Value="WHO_DRUG ATC Level 4 Code"/>
<ItemData ItemOID="IT.SUPPCM.QVAL" Value="A11HA"/>
<ItemData ItemOID="IT.SUPPCM.QORIG" Value="Assigned"/>
<ItemData ItemOID="IT.SUPPCM.QEVAL" Value="CLINICAL STUDY SPONSOR"/>
</ItemGroupData>
<ItemGroupData ItemGroupOID="IG.SUPPCM" data:ItemGroupDataSeq="62">
<ItemData ItemOID="IT.STUDYID" Value="CDISC01"/>
<ItemData ItemOID="IT.RDOMAIN" Value="CM"/>
<ItemData ItemOID="IT.USUBJID" Value="CDISC01.200001"/>
<ItemData ItemOID="IT.SUPPCM.IDVAR" Value="CMSEQ"/>
<ItemData ItemOID="IT.SUPPCM.IDVARVAL" Value="6"/>
<ItemData ItemOID="IT.SUPPCM.QNAM" Value="ATC4TERM"/>
<ItemData ItemOID="IT.SUPPCM.QLABEL" Value="ATC4 Drug Class Term"/>
<ItemData ItemOID="IT.SUPPCM.QVAL" Value="OTHER PLAIN VITAMIN PREPARATIONS"/>
<ItemData ItemOID="IT.SUPPCM.QORIG" Value="Assigned"/>
<ItemData ItemOID="IT.SUPPCM.QEVAL" Value="CLINICAL STUDY SPONSOR"/>
</ItemGroupData>
<ItemGroupData ItemGroupOID="IG.SUPPCM" data:ItemGroupDataSeq="63">
<ItemData ItemOID="IT.STUDYID" Value="CDISC01"/>
<ItemData ItemOID="IT.RDOMAIN" Value="CM"/>
<ItemData ItemOID="IT.USUBJID" Value="CDISC01.200001"/>
<ItemData ItemOID="IT.SUPPCM.IDVAR" Value="CMSEQ"/>
<ItemData ItemOID="IT.SUPPCM.IDVARVAL" Value="6"/>
<ItemData ItemOID="IT.SUPPCM.QNAM" Value="CPREFCD"/>
<ItemData ItemOID="IT.SUPPCM.QLABEL" Value="WHO_DRUG Drug Code"/>
<ItemData ItemOID="IT.SUPPCM.QVAL" Value="00110501001"/>
<ItemData ItemOID="IT.SUPPCM.QORIG" Value="Assigned"/>
<ItemData ItemOID="IT.SUPPCM.QEVAL" Value="CLINICAL STUDY SPONSOR"/>
</ItemGroupData>
<ItemGroupData ItemGroupOID="IG.SUPPCM" data:ItemGroupDataSeq="64">
<ItemData ItemOID="IT.STUDYID" Value="CDISC01"/>
<ItemData ItemOID="IT.RDOMAIN" Value="CM"/>
<ItemData ItemOID="IT.USUBJID" Value="CDISC01.200001"/>
<ItemData ItemOID="IT.SUPPCM.IDVAR" Value="CMSEQ"/>
<ItemData ItemOID="IT.SUPPCM.IDVARVAL" Value="7"/>
<ItemData ItemOID="IT.SUPPCM.QNAM" Value="ATC4CODE"/>
<ItemData ItemOID="IT.SUPPCM.QLABEL" Value="WHO_DRUG ATC Level 4 Code"/>
<ItemData ItemOID="IT.SUPPCM.QVAL" Value="N06DA"/>
<ItemData ItemOID="IT.SUPPCM.QORIG" Value="Assigned"/>
<ItemData ItemOID="IT.SUPPCM.QEVAL" Value="CLINICAL STUDY SPONSOR"/>
</ItemGroupData>
<ItemGroupData ItemGroupOID="IG.SUPPCM" data:ItemGroupDataSeq="65">
<ItemData ItemOID="IT.STUDYID" Value="CDISC01"/>
<ItemData ItemOID="IT.RDOMAIN" Value="CM"/>
<ItemData ItemOID="IT.USUBJID" Value="CDISC01.200001"/>
<ItemData ItemOID="IT.SUPPCM.IDVAR" Value="CMSEQ"/>
<ItemData ItemOID="IT.SUPPCM.IDVARVAL" Value="7"/>
<ItemData ItemOID="IT.SUPPCM.QNAM" Value="ATC4TERM"/>
<ItemData ItemOID="IT.SUPPCM.QLABEL" Value="ATC4 Drug Class Term"/>
<ItemData ItemOID="IT.SUPPCM.QVAL" Value="ANTICHOLINESTERASES"/>
<ItemData ItemOID="IT.SUPPCM.QORIG" Value="Assigned"/>
<ItemData ItemOID="IT.SUPPCM.QEVAL" Value="CLINICAL STUDY SPONSOR"/>
</ItemGroupData>
<ItemGroupData ItemGroupOID="IG.SUPPCM" data:ItemGroupDataSeq="66">
<ItemData ItemOID="IT.STUDYID" Value="CDISC01"/>
<ItemData ItemOID="IT.RDOMAIN" Value="CM"/>
<ItemData ItemOID="IT.USUBJID" Value="CDISC01.200001"/>
<ItemData ItemOID="IT.SUPPCM.IDVAR" Value="CMSEQ"/>
<ItemData ItemOID="IT.SUPPCM.IDVARVAL" Value="7"/>
<ItemData ItemOID="IT.SUPPCM.QNAM" Value="CPREFCD"/>
<ItemData ItemOID="IT.SUPPCM.QLABEL" Value="WHO_DRUG Drug Code"/>
<ItemData ItemOID="IT.SUPPCM.QVAL" Value="01318902001"/>
<ItemData ItemOID="IT.SUPPCM.QORIG" Value="Assigned"/>
<ItemData ItemOID="IT.SUPPCM.QEVAL" Value="CLINICAL STUDY SPONSOR"/>
</ItemGroupData>
<ItemGroupData ItemGroupOID="IG.SUPPCM" data:ItemGroupDataSeq="67">
<ItemData ItemOID="IT.STUDYID" Value="CDISC01"/>
<ItemData ItemOID="IT.RDOMAIN" Value="CM"/>
<ItemData ItemOID="IT.USUBJID" Value="CDISC01.200001"/>
<ItemData ItemOID="IT.SUPPCM.IDVAR" Value="CMSEQ"/>
<ItemData ItemOID="IT.SUPPCM.IDVARVAL" Value="7"/>
<ItemData ItemOID="IT.SUPPCM.QNAM" Value="PDDREAS"/>
<ItemData ItemOID="IT.SUPPCM.QLABEL" Value="Reason for Discontinuation"/>
<ItemData ItemOID="IT.SUPPCM.QVAL" Value="ADVERSE EVENT"/>
<ItemData ItemOID="IT.SUPPCM.QORIG" Value="CRF"/>
</ItemGroupData>
<ItemGroupData ItemGroupOID="IG.SUPPCM" data:ItemGroupDataSeq="68">
<ItemData ItemOID="IT.STUDYID" Value="CDISC01"/>
<ItemData ItemOID="IT.RDOMAIN" Value="CM"/>
<ItemData ItemOID="IT.USUBJID" Value="CDISC01.200001"/>
<ItemData ItemOID="IT.SUPPCM.IDVAR" Value="CMSEQ"/>
<ItemData ItemOID="IT.SUPPCM.IDVARVAL" Value="7"/>
<ItemData ItemOID="IT.SUPPCM.QNAM" Value="PDRESP"/>
<ItemData ItemOID="IT.SUPPCM.QLABEL" Value="Response"/>
<ItemData ItemOID="IT.SUPPCM.QVAL" Value="POOR"/>
<ItemData ItemOID="IT.SUPPCM.QORIG" Value="CRF"/>
</ItemGroupData>
<ItemGroupData ItemGroupOID="IG.SUPPCM" data:ItemGroupDataSeq="69">
<ItemData ItemOID="IT.STUDYID" Value="CDISC01"/>
<ItemData ItemOID="IT.RDOMAIN" Value="CM"/>
<ItemData ItemOID="IT.USUBJID" Value="CDISC01.200001"/>
<ItemData ItemOID="IT.SUPPCM.IDVAR" Value="CMSEQ"/>
<ItemData ItemOID="IT.SUPPCM.IDVARVAL" Value="8"/>
<ItemData ItemOID="IT.SUPPCM.QNAM" Value="ATC4CODE"/>
<ItemData ItemOID="IT.SUPPCM.QLABEL" Value="WHO_DRUG ATC Level 4 Code"/>
<ItemData ItemOID="IT.SUPPCM.QVAL" Value="N06DA"/>
<ItemData ItemOID="IT.SUPPCM.QORIG" Value="Assigned"/>
<ItemData ItemOID="IT.SUPPCM.QEVAL" Value="CLINICAL STUDY SPONSOR"/>
</ItemGroupData>
<ItemGroupData ItemGroupOID="IG.SUPPCM" data:ItemGroupDataSeq="70">
<ItemData ItemOID="IT.STUDYID" Value="CDISC01"/>
<ItemData ItemOID="IT.RDOMAIN" Value="CM"/>
<ItemData ItemOID="IT.USUBJID" Value="CDISC01.200001"/>
<ItemData ItemOID="IT.SUPPCM.IDVAR" Value="CMSEQ"/>
<ItemData ItemOID="IT.SUPPCM.IDVARVAL" Value="8"/>
<ItemData ItemOID="IT.SUPPCM.QNAM" Value="ATC4TERM"/>
<ItemData ItemOID="IT.SUPPCM.QLABEL" Value="ATC4 Drug Class Term"/>
<ItemData ItemOID="IT.SUPPCM.QVAL" Value="ANTICHOLINESTERASES"/>
<ItemData ItemOID="IT.SUPPCM.QORIG" Value="Assigned"/>
<ItemData ItemOID="IT.SUPPCM.QEVAL" Value="CLINICAL STUDY SPONSOR"/>
</ItemGroupData>
<ItemGroupData ItemGroupOID="IG.SUPPCM" data:ItemGroupDataSeq="71">
<ItemData ItemOID="IT.STUDYID" Value="CDISC01"/>
<ItemData ItemOID="IT.RDOMAIN" Value="CM"/>
<ItemData ItemOID="IT.USUBJID" Value="CDISC01.200001"/>
<ItemData ItemOID="IT.SUPPCM.IDVAR" Value="CMSEQ"/>
<ItemData ItemOID="IT.SUPPCM.IDVARVAL" Value="8"/>
<ItemData ItemOID="IT.SUPPCM.QNAM" Value="CPREFCD"/>
<ItemData ItemOID="IT.SUPPCM.QLABEL" Value="WHO_DRUG Drug Code"/>
<ItemData ItemOID="IT.SUPPCM.QVAL" Value="01383202001"/>
<ItemData ItemOID="IT.SUPPCM.QORIG" Value="Assigned"/>
<ItemData ItemOID="IT.SUPPCM.QEVAL" Value="CLINICAL STUDY SPONSOR"/>
</ItemGroupData>
<ItemGroupData ItemGroupOID="IG.SUPPCM" data:ItemGroupDataSeq="72">
<ItemData ItemOID="IT.STUDYID" Value="CDISC01"/>
<ItemData ItemOID="IT.RDOMAIN" Value="CM"/>
<ItemData ItemOID="IT.USUBJID" Value="CDISC01.200001"/>
<ItemData ItemOID="IT.SUPPCM.IDVAR" Value="CMSEQ"/>
<ItemData ItemOID="IT.SUPPCM.IDVARVAL" Value="8"/>
<ItemData ItemOID="IT.SUPPCM.QNAM" Value="PDDREAS"/>
<ItemData ItemOID="IT.SUPPCM.QLABEL" Value="Reason for Discontinuation"/>
<ItemData ItemOID="IT.SUPPCM.QVAL" Value="ADVERSE EVENT"/>
<ItemData ItemOID="IT.SUPPCM.QORIG" Value="CRF"/>
</ItemGroupData>
<ItemGroupData ItemGroupOID="IG.SUPPCM" data:ItemGroupDataSeq="73">
<ItemData ItemOID="IT.STUDYID" Value="CDISC01"/>
<ItemData ItemOID="IT.RDOMAIN" Value="CM"/>
<ItemData ItemOID="IT.USUBJID" Value="CDISC01.200001"/>
<ItemData ItemOID="IT.SUPPCM.IDVAR" Value="CMSEQ"/>
<ItemData ItemOID="IT.SUPPCM.IDVARVAL" Value="8"/>
<ItemData ItemOID="IT.SUPPCM.QNAM" Value="PDRESP"/>
<ItemData ItemOID="IT.SUPPCM.QLABEL" Value="Response"/>
<ItemData ItemOID="IT.SUPPCM.QVAL" Value="POOR"/>
<ItemData ItemOID="IT.SUPPCM.QORIG" Value="CRF"/>
</ItemGroupData>
<ItemGroupData ItemGroupOID="IG.SUPPCM" data:ItemGroupDataSeq="74">
<ItemData ItemOID="IT.STUDYID" Value="CDISC01"/>
<ItemData ItemOID="IT.RDOMAIN" Value="CM"/>
<ItemData ItemOID="IT.USUBJID" Value="CDISC01.200001"/>
<ItemData ItemOID="IT.SUPPCM.IDVAR" Value="CMSEQ"/>
<ItemData ItemOID="IT.SUPPCM.IDVARVAL" Value="9"/>
<ItemData ItemOID="IT.SUPPCM.QNAM" Value="ATC4CODE"/>
<ItemData ItemOID="IT.SUPPCM.QLABEL" Value="WHO_DRUG ATC Level 4 Code"/>
<ItemData ItemOID="IT.SUPPCM.QVAL" Value="N05AX"/>
<ItemData ItemOID="IT.SUPPCM.QORIG" Value="Assigned"/>
<ItemData ItemOID="IT.SUPPCM.QEVAL" Value="CLINICAL STUDY SPONSOR"/>
</ItemGroupData>
<ItemGroupData ItemGroupOID="IG.SUPPCM" data:ItemGroupDataSeq="75">
<ItemData ItemOID="IT.STUDYID" Value="CDISC01"/>
<ItemData ItemOID="IT.RDOMAIN" Value="CM"/>
<ItemData ItemOID="IT.USUBJID" Value="CDISC01.200001"/>
<ItemData ItemOID="IT.SUPPCM.IDVAR" Value="CMSEQ"/>
<ItemData ItemOID="IT.SUPPCM.IDVARVAL" Value="9"/>
<ItemData ItemOID="IT.SUPPCM.QNAM" Value="ATC4TERM"/>
<ItemData ItemOID="IT.SUPPCM.QLABEL" Value="ATC4 Drug Class Term"/>
<ItemData ItemOID="IT.SUPPCM.QVAL" Value="OTHER ANTIPSYCHOTICS"/>
<ItemData ItemOID="IT.SUPPCM.QORIG" Value="Assigned"/>
<ItemData ItemOID="IT.SUPPCM.QEVAL" Value="CLINICAL STUDY SPONSOR"/>
</ItemGroupData>
<ItemGroupData ItemGroupOID="IG.SUPPCM" data:ItemGroupDataSeq="76">
<ItemData ItemOID="IT.STUDYID" Value="CDISC01"/>
<ItemData ItemOID="IT.RDOMAIN" Value="CM"/>
<ItemData ItemOID="IT.USUBJID" Value="CDISC01.200001"/>
<ItemData ItemOID="IT.SUPPCM.IDVAR" Value="CMSEQ"/>
<ItemData ItemOID="IT.SUPPCM.IDVARVAL" Value="9"/>
<ItemData ItemOID="IT.SUPPCM.QNAM" Value="CPREFCD"/>
<ItemData ItemOID="IT.SUPPCM.QLABEL" Value="WHO_DRUG Drug Code"/>
<ItemData ItemOID="IT.SUPPCM.QVAL" Value="01143201001"/>
<ItemData ItemOID="IT.SUPPCM.QORIG" Value="Assigned"/>
<ItemData ItemOID="IT.SUPPCM.QEVAL" Value="CLINICAL STUDY SPONSOR"/>
</ItemGroupData>
<ItemGroupData ItemGroupOID="IG.SUPPCM" data:ItemGroupDataSeq="77">
<ItemData ItemOID="IT.STUDYID" Value="CDISC01"/>
<ItemData ItemOID="IT.RDOMAIN" Value="CM"/>
<ItemData ItemOID="IT.USUBJID" Value="CDISC01.200001"/>
<ItemData ItemOID="IT.SUPPCM.IDVAR" Value="CMSEQ"/>
<ItemData ItemOID="IT.SUPPCM.IDVARVAL" Value="9"/>
<ItemData ItemOID="IT.SUPPCM.QNAM" Value="PDDREAS"/>
<ItemData ItemOID="IT.SUPPCM.QLABEL" Value="Reason for Discontinuation"/>
<ItemData ItemOID="IT.SUPPCM.QVAL" Value="ADVERSE EVENT"/>
<ItemData ItemOID="IT.SUPPCM.QORIG" Value="CRF"/>
</ItemGroupData>
<ItemGroupData ItemGroupOID="IG.SUPPCM" data:ItemGroupDataSeq="78">
<ItemData ItemOID="IT.STUDYID" Value="CDISC01"/>
<ItemData ItemOID="IT.RDOMAIN" Value="CM"/>
<ItemData ItemOID="IT.USUBJID" Value="CDISC01.200001"/>
<ItemData ItemOID="IT.SUPPCM.IDVAR" Value="CMSEQ"/>
<ItemData ItemOID="IT.SUPPCM.IDVARVAL" Value="9"/>
<ItemData ItemOID="IT.SUPPCM.QNAM" Value="PDRESP"/>
<ItemData ItemOID="IT.SUPPCM.QLABEL" Value="Response"/>
<ItemData ItemOID="IT.SUPPCM.QVAL" Value="POOR"/>
<ItemData ItemOID="IT.SUPPCM.QORIG" Value="CRF"/>
</ItemGroupData>
<ItemGroupData ItemGroupOID="IG.SUPPCM" data:ItemGroupDataSeq="79">
<ItemData ItemOID="IT.STUDYID" Value="CDISC01"/>
<ItemData ItemOID="IT.RDOMAIN" Value="CM"/>
<ItemData ItemOID="IT.USUBJID" Value="CDISC01.200001"/>
<ItemData ItemOID="IT.SUPPCM.IDVAR" Value="CMSEQ"/>
<ItemData ItemOID="IT.SUPPCM.IDVARVAL" Value="10"/>
<ItemData ItemOID="IT.SUPPCM.QNAM" Value="ATC4CODE"/>
<ItemData ItemOID="IT.SUPPCM.QLABEL" Value="WHO_DRUG ATC Level 4 Code"/>
<ItemData ItemOID="IT.SUPPCM.QVAL" Value="N06AX"/>
<ItemData ItemOID="IT.SUPPCM.QORIG" Value="Assigned"/>
<ItemData ItemOID="IT.SUPPCM.QEVAL" Value="CLINICAL STUDY SPONSOR"/>
</ItemGroupData>
<ItemGroupData ItemGroupOID="IG.SUPPCM" data:ItemGroupDataSeq="80">
<ItemData ItemOID="IT.STUDYID" Value="CDISC01"/>
<ItemData ItemOID="IT.RDOMAIN" Value="CM"/>
<ItemData ItemOID="IT.USUBJID" Value="CDISC01.200001"/>
<ItemData ItemOID="IT.SUPPCM.IDVAR" Value="CMSEQ"/>
<ItemData ItemOID="IT.SUPPCM.IDVARVAL" Value="10"/>
<ItemData ItemOID="IT.SUPPCM.QNAM" Value="ATC4TERM"/>
<ItemData ItemOID="IT.SUPPCM.QLABEL" Value="ATC4 Drug Class Term"/>
<ItemData ItemOID="IT.SUPPCM.QVAL" Value="OTHER ANTIDEPRESSANTS"/>
<ItemData ItemOID="IT.SUPPCM.QORIG" Value="Assigned"/>
<ItemData ItemOID="IT.SUPPCM.QEVAL" Value="CLINICAL STUDY SPONSOR"/>
</ItemGroupData>
<ItemGroupData ItemGroupOID="IG.SUPPCM" data:ItemGroupDataSeq="81">
<ItemData ItemOID="IT.STUDYID" Value="CDISC01"/>
<ItemData ItemOID="IT.RDOMAIN" Value="CM"/>
<ItemData ItemOID="IT.USUBJID" Value="CDISC01.200001"/>
<ItemData ItemOID="IT.SUPPCM.IDVAR" Value="CMSEQ"/>
<ItemData ItemOID="IT.SUPPCM.IDVARVAL" Value="10"/>
<ItemData ItemOID="IT.SUPPCM.QNAM" Value="CPREFCD"/>
<ItemData ItemOID="IT.SUPPCM.QLABEL" Value="WHO_DRUG Drug Code"/>
<ItemData ItemOID="IT.SUPPCM.QVAL" Value="00447702001"/>
<ItemData ItemOID="IT.SUPPCM.QORIG" Value="Assigned"/>
<ItemData ItemOID="IT.SUPPCM.QEVAL" Value="CLINICAL STUDY SPONSOR"/>
</ItemGroupData>
<ItemGroupData ItemGroupOID="IG.SUPPCM" data:ItemGroupDataSeq="82">
<ItemData ItemOID="IT.STUDYID" Value="CDISC01"/>
<ItemData ItemOID="IT.RDOMAIN" Value="CM"/>
<ItemData ItemOID="IT.USUBJID" Value="CDISC01.200001"/>
<ItemData ItemOID="IT.SUPPCM.IDVAR" Value="CMSEQ"/>
<ItemData ItemOID="IT.SUPPCM.IDVARVAL" Value="10"/>
<ItemData ItemOID="IT.SUPPCM.QNAM" Value="PDDREAS"/>
<ItemData ItemOID="IT.SUPPCM.QLABEL" Value="Reason for Discontinuation"/>
<ItemData ItemOID="IT.SUPPCM.QVAL" Value="INSUFFICIENT RESPONSE"/>
<ItemData ItemOID="IT.SUPPCM.QORIG" Value="CRF"/>
</ItemGroupData>
<ItemGroupData ItemGroupOID="IG.SUPPCM" data:ItemGroupDataSeq="83">
<ItemData ItemOID="IT.STUDYID" Value="CDISC01"/>
<ItemData ItemOID="IT.RDOMAIN" Value="CM"/>
<ItemData ItemOID="IT.USUBJID" Value="CDISC01.200001"/>
<ItemData ItemOID="IT.SUPPCM.IDVAR" Value="CMSEQ"/>
<ItemData ItemOID="IT.SUPPCM.IDVARVAL" Value="10"/>
<ItemData ItemOID="IT.SUPPCM.QNAM" Value="PDRESP"/>
<ItemData ItemOID="IT.SUPPCM.QLABEL" Value="Response"/>
<ItemData ItemOID="IT.SUPPCM.QVAL" Value="POOR"/>
<ItemData ItemOID="IT.SUPPCM.QORIG" Value="CRF"/>
</ItemGroupData>
<ItemGroupData ItemGroupOID="IG.SUPPCM" data:ItemGroupDataSeq="84">
<ItemData ItemOID="IT.STUDYID" Value="CDISC01"/>
<ItemData ItemOID="IT.RDOMAIN" Value="CM"/>
<ItemData ItemOID="IT.USUBJID" Value="CDISC01.200001"/>
<ItemData ItemOID="IT.SUPPCM.IDVAR" Value="CMSEQ"/>
<ItemData ItemOID="IT.SUPPCM.IDVARVAL" Value="11"/>
<ItemData ItemOID="IT.SUPPCM.QNAM" Value="ATC4CODE"/>
<ItemData ItemOID="IT.SUPPCM.QLABEL" Value="WHO_DRUG ATC Level 4 Code"/>
<ItemData ItemOID="IT.SUPPCM.QVAL" Value="N05CF"/>
<ItemData ItemOID="IT.SUPPCM.QORIG" Value="Assigned"/>
<ItemData ItemOID="IT.SUPPCM.QEVAL" Value="CLINICAL STUDY SPONSOR"/>
</ItemGroupData>
<ItemGroupData ItemGroupOID="IG.SUPPCM" data:ItemGroupDataSeq="85">
<ItemData ItemOID="IT.STUDYID" Value="CDISC01"/>
<ItemData ItemOID="IT.RDOMAIN" Value="CM"/>
<ItemData ItemOID="IT.USUBJID" Value="CDISC01.200001"/>
<ItemData ItemOID="IT.SUPPCM.IDVAR" Value="CMSEQ"/>
<ItemData ItemOID="IT.SUPPCM.IDVARVAL" Value="11"/>
<ItemData ItemOID="IT.SUPPCM.QNAM" Value="ATC4TERM"/>
<ItemData ItemOID="IT.SUPPCM.QLABEL" Value="ATC4 Drug Class Term"/>
<ItemData ItemOID="IT.SUPPCM.QVAL" Value="BENZODIAZEPINE RELATED DRUGS"/>
<ItemData ItemOID="IT.SUPPCM.QORIG" Value="Assigned"/>
<ItemData ItemOID="IT.SUPPCM.QEVAL" Value="CLINICAL STUDY SPONSOR"/>
</ItemGroupData>
<ItemGroupData ItemGroupOID="IG.SUPPCM" data:ItemGroupDataSeq="86">
<ItemData ItemOID="IT.STUDYID" Value="CDISC01"/>
<ItemData ItemOID="IT.RDOMAIN" Value="CM"/>
<ItemData ItemOID="IT.USUBJID" Value="CDISC01.200001"/>
<ItemData ItemOID="IT.SUPPCM.IDVAR" Value="CMSEQ"/>
<ItemData ItemOID="IT.SUPPCM.IDVARVAL" Value="11"/>
<ItemData ItemOID="IT.SUPPCM.QNAM" Value="CPREFCD"/>
<ItemData ItemOID="IT.SUPPCM.QLABEL" Value="WHO_DRUG Drug Code"/>
<ItemData ItemOID="IT.SUPPCM.QVAL" Value="00914902001"/>
<ItemData ItemOID="IT.SUPPCM.QORIG" Value="Assigned"/>
<ItemData ItemOID="IT.SUPPCM.QEVAL" Value="CLINICAL STUDY SPONSOR"/>
</ItemGroupData>
<ItemGroupData ItemGroupOID="IG.SUPPCM" data:ItemGroupDataSeq="87">
<ItemData ItemOID="IT.STUDYID" Value="CDISC01"/>
<ItemData ItemOID="IT.RDOMAIN" Value="CM"/>
<ItemData ItemOID="IT.USUBJID" Value="CDISC01.200001"/>
<ItemData ItemOID="IT.SUPPCM.IDVAR" Value="CMSEQ"/>
<ItemData ItemOID="IT.SUPPCM.IDVARVAL" Value="12"/>
<ItemData ItemOID="IT.SUPPCM.QNAM" Value="ATC4CODE"/>
<ItemData ItemOID="IT.SUPPCM.QLABEL" Value="WHO_DRUG ATC Level 4 Code"/>
<ItemData ItemOID="IT.SUPPCM.QVAL" Value="N05CF"/>
<ItemData ItemOID="IT.SUPPCM.QORIG" Value="Assigned"/>
<ItemData ItemOID="IT.SUPPCM.QEVAL" Value="CLINICAL STUDY SPONSOR"/>
</ItemGroupData>
<ItemGroupData ItemGroupOID="IG.SUPPCM" data:ItemGroupDataSeq="88">
<ItemData ItemOID="IT.STUDYID" Value="CDISC01"/>
<ItemData ItemOID="IT.RDOMAIN" Value="CM"/>
<ItemData ItemOID="IT.USUBJID" Value="CDISC01.200001"/>
<ItemData ItemOID="IT.SUPPCM.IDVAR" Value="CMSEQ"/>
<ItemData ItemOID="IT.SUPPCM.IDVARVAL" Value="12"/>
<ItemData ItemOID="IT.SUPPCM.QNAM" Value="ATC4TERM"/>
<ItemData ItemOID="IT.SUPPCM.QLABEL" Value="ATC4 Drug Class Term"/>
<ItemData ItemOID="IT.SUPPCM.QVAL" Value="BENZODIAZEPINE RELATED DRUGS"/>
<ItemData ItemOID="IT.SUPPCM.QORIG" Value="Assigned"/>
<ItemData ItemOID="IT.SUPPCM.QEVAL" Value="CLINICAL STUDY SPONSOR"/>
</ItemGroupData>
<ItemGroupData ItemGroupOID="IG.SUPPCM" data:ItemGroupDataSeq="89">
<ItemData ItemOID="IT.STUDYID" Value="CDISC01"/>
<ItemData ItemOID="IT.RDOMAIN" Value="CM"/>
<ItemData ItemOID="IT.USUBJID" Value="CDISC01.200001"/>
<ItemData ItemOID="IT.SUPPCM.IDVAR" Value="CMSEQ"/>
<ItemData ItemOID="IT.SUPPCM.IDVARVAL" Value="12"/>
<ItemData ItemOID="IT.SUPPCM.QNAM" Value="CPREFCD"/>
<ItemData ItemOID="IT.SUPPCM.QLABEL" Value="WHO_DRUG Drug Code"/>
<ItemData ItemOID="IT.SUPPCM.QVAL" Value="00914902001"/>
<ItemData ItemOID="IT.SUPPCM.QORIG" Value="Assigned"/>
<ItemData ItemOID="IT.SUPPCM.QEVAL" Value="CLINICAL STUDY SPONSOR"/>
</ItemGroupData>
<ItemGroupData ItemGroupOID="IG.SUPPCM" data:ItemGroupDataSeq="90">
<ItemData ItemOID="IT.STUDYID" Value="CDISC01"/>
<ItemData ItemOID="IT.RDOMAIN" Value="CM"/>
<ItemData ItemOID="IT.USUBJID" Value="CDISC01.200001"/>
<ItemData ItemOID="IT.SUPPCM.IDVAR" Value="CMSEQ"/>
<ItemData ItemOID="IT.SUPPCM.IDVARVAL" Value="13"/>
<ItemData ItemOID="IT.SUPPCM.QNAM" Value="ATC4CODE"/>
<ItemData ItemOID="IT.SUPPCM.QLABEL" Value="WHO_DRUG ATC Level 4 Code"/>
<ItemData ItemOID="IT.SUPPCM.QVAL" Value="J07BB"/>
<ItemData ItemOID="IT.SUPPCM.QORIG" Value="Assigned"/>
<ItemData ItemOID="IT.SUPPCM.QEVAL" Value="CLINICAL STUDY SPONSOR"/>
</ItemGroupData>
<ItemGroupData ItemGroupOID="IG.SUPPCM" data:ItemGroupDataSeq="91">
<ItemData ItemOID="IT.STUDYID" Value="CDISC01"/>
<ItemData ItemOID="IT.RDOMAIN" Value="CM"/>
<ItemData ItemOID="IT.USUBJID" Value="CDISC01.200001"/>
<ItemData ItemOID="IT.SUPPCM.IDVAR" Value="CMSEQ"/>
<ItemData ItemOID="IT.SUPPCM.IDVARVAL" Value="13"/>
<ItemData ItemOID="IT.SUPPCM.QNAM" Value="ATC4TERM"/>
<ItemData ItemOID="IT.SUPPCM.QLABEL" Value="ATC4 Drug Class Term"/>
<ItemData ItemOID="IT.SUPPCM.QVAL" Value="INFLUENZA VACCINES"/>
<ItemData ItemOID="IT.SUPPCM.QORIG" Value="Assigned"/>
<ItemData ItemOID="IT.SUPPCM.QEVAL" Value="CLINICAL STUDY SPONSOR"/>
</ItemGroupData>
<ItemGroupData ItemGroupOID="IG.SUPPCM" data:ItemGroupDataSeq="92">
<ItemData ItemOID="IT.STUDYID" Value="CDISC01"/>
<ItemData ItemOID="IT.RDOMAIN" Value="CM"/>
<ItemData ItemOID="IT.USUBJID" Value="CDISC01.200001"/>
<ItemData ItemOID="IT.SUPPCM.IDVAR" Value="CMSEQ"/>
<ItemData ItemOID="IT.SUPPCM.IDVARVAL" Value="13"/>
<ItemData ItemOID="IT.SUPPCM.QNAM" Value="CPREFCD"/>
<ItemData ItemOID="IT.SUPPCM.QLABEL" Value="WHO_DRUG Drug Code"/>
<ItemData ItemOID="IT.SUPPCM.QVAL" Value="01389801001"/>
<ItemData ItemOID="IT.SUPPCM.QORIG" Value="Assigned"/>
<ItemData ItemOID="IT.SUPPCM.QEVAL" Value="CLINICAL STUDY SPONSOR"/>
</ItemGroupData>
<ItemGroupData ItemGroupOID="IG.SUPPCM" data:ItemGroupDataSeq="93">
<ItemData ItemOID="IT.STUDYID" Value="CDISC01"/>
<ItemData ItemOID="IT.RDOMAIN" Value="CM"/>
<ItemData ItemOID="IT.USUBJID" Value="CDISC01.200001"/>
<ItemData ItemOID="IT.SUPPCM.IDVAR" Value="CMSEQ"/>
<ItemData ItemOID="IT.SUPPCM.IDVARVAL" Value="14"/>
<ItemData ItemOID="IT.SUPPCM.QNAM" Value="ATC4CODE"/>
<ItemData ItemOID="IT.SUPPCM.QLABEL" Value="WHO_DRUG ATC Level 4 Code"/>
<ItemData ItemOID="IT.SUPPCM.QVAL" Value="R05X"/>
<ItemData ItemOID="IT.SUPPCM.QORIG" Value="Assigned"/>
<ItemData ItemOID="IT.SUPPCM.QEVAL" Value="CLINICAL STUDY SPONSOR"/>
</ItemGroupData>
<ItemGroupData ItemGroupOID="IG.SUPPCM" data:ItemGroupDataSeq="94">
<ItemData ItemOID="IT.STUDYID" Value="CDISC01"/>
<ItemData ItemOID="IT.RDOMAIN" Value="CM"/>
<ItemData ItemOID="IT.USUBJID" Value="CDISC01.200001"/>
<ItemData ItemOID="IT.SUPPCM.IDVAR" Value="CMSEQ"/>
<ItemData ItemOID="IT.SUPPCM.IDVARVAL" Value="14"/>
<ItemData ItemOID="IT.SUPPCM.QNAM" Value="ATC4TERM"/>
<ItemData ItemOID="IT.SUPPCM.QLABEL" Value="ATC4 Drug Class Term"/>
<ItemData ItemOID="IT.SUPPCM.QVAL" Value="OTHER COLD COMBINATION PREPARATIONS"/>
<ItemData ItemOID="IT.SUPPCM.QORIG" Value="Assigned"/>
<ItemData ItemOID="IT.SUPPCM.QEVAL" Value="CLINICAL STUDY SPONSOR"/>
</ItemGroupData>
<ItemGroupData ItemGroupOID="IG.SUPPCM" data:ItemGroupDataSeq="95">
<ItemData ItemOID="IT.STUDYID" Value="CDISC01"/>
<ItemData ItemOID="IT.RDOMAIN" Value="CM"/>
<ItemData ItemOID="IT.USUBJID" Value="CDISC01.200001"/>
<ItemData ItemOID="IT.SUPPCM.IDVAR" Value="CMSEQ"/>
<ItemData ItemOID="IT.SUPPCM.IDVARVAL" Value="14"/>
<ItemData ItemOID="IT.SUPPCM.QNAM" Value="CPREFCD"/>
<ItemData ItemOID="IT.SUPPCM.QLABEL" Value="WHO_DRUG Drug Code"/>
<ItemData ItemOID="IT.SUPPCM.QVAL" Value="01082701001"/>
<ItemData ItemOID="IT.SUPPCM.QORIG" Value="Assigned"/>
<ItemData ItemOID="IT.SUPPCM.QEVAL" Value="CLINICAL STUDY SPONSOR"/>
</ItemGroupData>
<ItemGroupData ItemGroupOID="IG.SUPPCM" data:ItemGroupDataSeq="96">
<ItemData ItemOID="IT.STUDYID" Value="CDISC01"/>
<ItemData ItemOID="IT.RDOMAIN" Value="CM"/>
<ItemData ItemOID="IT.USUBJID" Value="CDISC01.200002"/>
<ItemData ItemOID="IT.SUPPCM.IDVAR" Value="CMSEQ"/>
<ItemData ItemOID="IT.SUPPCM.IDVARVAL" Value="1"/>
<ItemData ItemOID="IT.SUPPCM.QNAM" Value="ATC4CODE"/>
<ItemData ItemOID="IT.SUPPCM.QLABEL" Value="WHO_DRUG ATC Level 4 Code"/>
<ItemData ItemOID="IT.SUPPCM.QVAL" Value="N06DA"/>
<ItemData ItemOID="IT.SUPPCM.QORIG" Value="Assigned"/>
<ItemData ItemOID="IT.SUPPCM.QEVAL" Value="CLINICAL STUDY SPONSOR"/>
</ItemGroupData>
<ItemGroupData ItemGroupOID="IG.SUPPCM" data:ItemGroupDataSeq="97">
<ItemData ItemOID="IT.STUDYID" Value="CDISC01"/>
<ItemData ItemOID="IT.RDOMAIN" Value="CM"/>
<ItemData ItemOID="IT.USUBJID" Value="CDISC01.200002"/>
<ItemData ItemOID="IT.SUPPCM.IDVAR" Value="CMSEQ"/>
<ItemData ItemOID="IT.SUPPCM.IDVARVAL" Value="1"/>
<ItemData ItemOID="IT.SUPPCM.QNAM" Value="ATC4TERM"/>
<ItemData ItemOID="IT.SUPPCM.QLABEL" Value="ATC4 Drug Class Term"/>
<ItemData ItemOID="IT.SUPPCM.QVAL" Value="ANTICHOLINESTERASES"/>
<ItemData ItemOID="IT.SUPPCM.QORIG" Value="Assigned"/>
<ItemData ItemOID="IT.SUPPCM.QEVAL" Value="CLINICAL STUDY SPONSOR"/>
</ItemGroupData>
<ItemGroupData ItemGroupOID="IG.SUPPCM" data:ItemGroupDataSeq="98">
<ItemData ItemOID="IT.STUDYID" Value="CDISC01"/>
<ItemData ItemOID="IT.RDOMAIN" Value="CM"/>
<ItemData ItemOID="IT.USUBJID" Value="CDISC01.200002"/>
<ItemData ItemOID="IT.SUPPCM.IDVAR" Value="CMSEQ"/>
<ItemData ItemOID="IT.SUPPCM.IDVARVAL" Value="1"/>
<ItemData ItemOID="IT.SUPPCM.QNAM" Value="CPREFCD"/>
<ItemData ItemOID="IT.SUPPCM.QLABEL" Value="WHO_DRUG Drug Code"/>
<ItemData ItemOID="IT.SUPPCM.QVAL" Value="01318902001"/>
<ItemData ItemOID="IT.SUPPCM.QORIG" Value="Assigned"/>
<ItemData ItemOID="IT.SUPPCM.QEVAL" Value="CLINICAL STUDY SPONSOR"/>
</ItemGroupData>
<ItemGroupData ItemGroupOID="IG.SUPPCM" data:ItemGroupDataSeq="99">
<ItemData ItemOID="IT.STUDYID" Value="CDISC01"/>
<ItemData ItemOID="IT.RDOMAIN" Value="CM"/>
<ItemData ItemOID="IT.USUBJID" Value="CDISC01.200002"/>
<ItemData ItemOID="IT.SUPPCM.IDVAR" Value="CMSEQ"/>
<ItemData ItemOID="IT.SUPPCM.IDVARVAL" Value="2"/>
<ItemData ItemOID="IT.SUPPCM.QNAM" Value="ATC4CODE"/>
<ItemData ItemOID="IT.SUPPCM.QLABEL" Value="WHO_DRUG ATC Level 4 Code"/>
<ItemData ItemOID="IT.SUPPCM.QVAL" Value="N06DA"/>
<ItemData ItemOID="IT.SUPPCM.QORIG" Value="Assigned"/>
<ItemData ItemOID="IT.SUPPCM.QEVAL" Value="CLINICAL STUDY SPONSOR"/>
</ItemGroupData>
<ItemGroupData ItemGroupOID="IG.SUPPCM" data:ItemGroupDataSeq="100">
<ItemData ItemOID="IT.STUDYID" Value="CDISC01"/>
<ItemData ItemOID="IT.RDOMAIN" Value="CM"/>
<ItemData ItemOID="IT.USUBJID" Value="CDISC01.200002"/>
<ItemData ItemOID="IT.SUPPCM.IDVAR" Value="CMSEQ"/>
<ItemData ItemOID="IT.SUPPCM.IDVARVAL" Value="2"/>
<ItemData ItemOID="IT.SUPPCM.QNAM" Value="ATC4TERM"/>
<ItemData ItemOID="IT.SUPPCM.QLABEL" Value="ATC4 Drug Class Term"/>
<ItemData ItemOID="IT.SUPPCM.QVAL" Value="ANTICHOLINESTERASES"/>
<ItemData ItemOID="IT.SUPPCM.QORIG" Value="Assigned"/>
<ItemData ItemOID="IT.SUPPCM.QEVAL" Value="CLINICAL STUDY SPONSOR"/>
</ItemGroupData>
<ItemGroupData ItemGroupOID="IG.SUPPCM" data:ItemGroupDataSeq="101">
<ItemData ItemOID="IT.STUDYID" Value="CDISC01"/>
<ItemData ItemOID="IT.RDOMAIN" Value="CM"/>
<ItemData ItemOID="IT.USUBJID" Value="CDISC01.200002"/>
<ItemData ItemOID="IT.SUPPCM.IDVAR" Value="CMSEQ"/>
<ItemData ItemOID="IT.SUPPCM.IDVARVAL" Value="2"/>
<ItemData ItemOID="IT.SUPPCM.QNAM" Value="CPREFCD"/>
<ItemData ItemOID="IT.SUPPCM.QLABEL" Value="WHO_DRUG Drug Code"/>
<ItemData ItemOID="IT.SUPPCM.QVAL" Value="01318901001"/>
<ItemData ItemOID="IT.SUPPCM.QORIG" Value="Assigned"/>
<ItemData ItemOID="IT.SUPPCM.QEVAL" Value="CLINICAL STUDY SPONSOR"/>
</ItemGroupData>
<ItemGroupData ItemGroupOID="IG.SUPPCM" data:ItemGroupDataSeq="102">
<ItemData ItemOID="IT.STUDYID" Value="CDISC01"/>
<ItemData ItemOID="IT.RDOMAIN" Value="CM"/>
<ItemData ItemOID="IT.USUBJID" Value="CDISC01.200002"/>
<ItemData ItemOID="IT.SUPPCM.IDVAR" Value="CMSEQ"/>
<ItemData ItemOID="IT.SUPPCM.IDVARVAL" Value="2"/>
<ItemData ItemOID="IT.SUPPCM.QNAM" Value="PDDREAS"/>
<ItemData ItemOID="IT.SUPPCM.QLABEL" Value="Reason for Discontinuation"/>
<ItemData ItemOID="IT.SUPPCM.QVAL" Value="INSUFFICIENT RESPONSE"/>
<ItemData ItemOID="IT.SUPPCM.QORIG" Value="CRF"/>
</ItemGroupData>
<ItemGroupData ItemGroupOID="IG.SUPPCM" data:ItemGroupDataSeq="103">
<ItemData ItemOID="IT.STUDYID" Value="CDISC01"/>
<ItemData ItemOID="IT.RDOMAIN" Value="CM"/>
<ItemData ItemOID="IT.USUBJID" Value="CDISC01.200002"/>
<ItemData ItemOID="IT.SUPPCM.IDVAR" Value="CMSEQ"/>
<ItemData ItemOID="IT.SUPPCM.IDVARVAL" Value="2"/>
<ItemData ItemOID="IT.SUPPCM.QNAM" Value="PDRESP"/>
<ItemData ItemOID="IT.SUPPCM.QLABEL" Value="Response"/>
<ItemData ItemOID="IT.SUPPCM.QVAL" Value="POOR"/>
<ItemData ItemOID="IT.SUPPCM.QORIG" Value="CRF"/>
</ItemGroupData>
<ItemGroupData ItemGroupOID="IG.SUPPCM" data:ItemGroupDataSeq="104">
<ItemData ItemOID="IT.STUDYID" Value="CDISC01"/>
<ItemData ItemOID="IT.RDOMAIN" Value="CM"/>
<ItemData ItemOID="IT.USUBJID" Value="CDISC01.200002"/>
<ItemData ItemOID="IT.SUPPCM.IDVAR" Value="CMSEQ"/>
<ItemData ItemOID="IT.SUPPCM.IDVARVAL" Value="3"/>
<ItemData ItemOID="IT.SUPPCM.QNAM" Value="ATC4CODE"/>
<ItemData ItemOID="IT.SUPPCM.QLABEL" Value="WHO_DRUG ATC Level 4 Code"/>
<ItemData ItemOID="IT.SUPPCM.QVAL" Value="A11AB"/>
<ItemData ItemOID="IT.SUPPCM.QORIG" Value="Assigned"/>
<ItemData ItemOID="IT.SUPPCM.QEVAL" Value="CLINICAL STUDY SPONSOR"/>
</ItemGroupData>
<ItemGroupData ItemGroupOID="IG.SUPPCM" data:ItemGroupDataSeq="105">
<ItemData ItemOID="IT.STUDYID" Value="CDISC01"/>
<ItemData ItemOID="IT.RDOMAIN" Value="CM"/>
<ItemData ItemOID="IT.USUBJID" Value="CDISC01.200002"/>
<ItemData ItemOID="IT.SUPPCM.IDVAR" Value="CMSEQ"/>
<ItemData ItemOID="IT.SUPPCM.IDVARVAL" Value="3"/>
<ItemData ItemOID="IT.SUPPCM.QNAM" Value="ATC4TERM"/>
<ItemData ItemOID="IT.SUPPCM.QLABEL" Value="ATC4 Drug Class Term"/>
<ItemData ItemOID="IT.SUPPCM.QVAL" Value="MULTIVITAMINS, OTHER COMBINATIONS"/>
<ItemData ItemOID="IT.SUPPCM.QORIG" Value="Assigned"/>
<ItemData ItemOID="IT.SUPPCM.QEVAL" Value="CLINICAL STUDY SPONSOR"/>
</ItemGroupData>
<ItemGroupData ItemGroupOID="IG.SUPPCM" data:ItemGroupDataSeq="106">
<ItemData ItemOID="IT.STUDYID" Value="CDISC01"/>
<ItemData ItemOID="IT.RDOMAIN" Value="CM"/>
<ItemData ItemOID="IT.USUBJID" Value="CDISC01.200002"/>
<ItemData ItemOID="IT.SUPPCM.IDVAR" Value="CMSEQ"/>
<ItemData ItemOID="IT.SUPPCM.IDVARVAL" Value="3"/>
<ItemData ItemOID="IT.SUPPCM.QNAM" Value="CPREFCD"/>
<ItemData ItemOID="IT.SUPPCM.QLABEL" Value="WHO_DRUG Drug Code"/>
<ItemData ItemOID="IT.SUPPCM.QVAL" Value="00116001001"/>
<ItemData ItemOID="IT.SUPPCM.QORIG" Value="Assigned"/>
<ItemData ItemOID="IT.SUPPCM.QEVAL" Value="CLINICAL STUDY SPONSOR"/>
</ItemGroupData>
<ItemGroupData ItemGroupOID="IG.SUPPCM" data:ItemGroupDataSeq="107">
<ItemData ItemOID="IT.STUDYID" Value="CDISC01"/>
<ItemData ItemOID="IT.RDOMAIN" Value="CM"/>
<ItemData ItemOID="IT.USUBJID" Value="CDISC01.200002"/>
<ItemData ItemOID="IT.SUPPCM.IDVAR" Value="CMSEQ"/>
<ItemData ItemOID="IT.SUPPCM.IDVARVAL" Value="4"/>
<ItemData ItemOID="IT.SUPPCM.QNAM" Value="ATC4CODE"/>
<ItemData ItemOID="IT.SUPPCM.QLABEL" Value="WHO_DRUG ATC Level 4 Code"/>
<ItemData ItemOID="IT.SUPPCM.QVAL" Value="J07BB"/>
<ItemData ItemOID="IT.SUPPCM.QORIG" Value="Assigned"/>
<ItemData ItemOID="IT.SUPPCM.QEVAL" Value="CLINICAL STUDY SPONSOR"/>
</ItemGroupData>
<ItemGroupData ItemGroupOID="IG.SUPPCM" data:ItemGroupDataSeq="108">
<ItemData ItemOID="IT.STUDYID" Value="CDISC01"/>
<ItemData ItemOID="IT.RDOMAIN" Value="CM"/>
<ItemData ItemOID="IT.USUBJID" Value="CDISC01.200002"/>
<ItemData ItemOID="IT.SUPPCM.IDVAR" Value="CMSEQ"/>
<ItemData ItemOID="IT.SUPPCM.IDVARVAL" Value="4"/>
<ItemData ItemOID="IT.SUPPCM.QNAM" Value="ATC4TERM"/>
<ItemData ItemOID="IT.SUPPCM.QLABEL" Value="ATC4 Drug Class Term"/>
<ItemData ItemOID="IT.SUPPCM.QVAL" Value="INFLUENZA VACCINES"/>
<ItemData ItemOID="IT.SUPPCM.QORIG" Value="Assigned"/>
<ItemData ItemOID="IT.SUPPCM.QEVAL" Value="CLINICAL STUDY SPONSOR"/>
</ItemGroupData>
<ItemGroupData ItemGroupOID="IG.SUPPCM" data:ItemGroupDataSeq="109">
<ItemData ItemOID="IT.STUDYID" Value="CDISC01"/>
<ItemData ItemOID="IT.RDOMAIN" Value="CM"/>
<ItemData ItemOID="IT.USUBJID" Value="CDISC01.200002"/>
<ItemData ItemOID="IT.SUPPCM.IDVAR" Value="CMSEQ"/>
<ItemData ItemOID="IT.SUPPCM.IDVARVAL" Value="4"/>
<ItemData ItemOID="IT.SUPPCM.QNAM" Value="CPREFCD"/>
<ItemData ItemOID="IT.SUPPCM.QLABEL" Value="WHO_DRUG Drug Code"/>
<ItemData ItemOID="IT.SUPPCM.QVAL" Value="01389801001"/>
<ItemData ItemOID="IT.SUPPCM.QORIG" Value="Assigned"/>
<ItemData ItemOID="IT.SUPPCM.QEVAL" Value="CLINICAL STUDY SPONSOR"/>
</ItemGroupData>
<ItemGroupData ItemGroupOID="IG.SUPPCM" data:ItemGroupDataSeq="110">
<ItemData ItemOID="IT.STUDYID" Value="CDISC01"/>
<ItemData ItemOID="IT.RDOMAIN" Value="CM"/>
<ItemData ItemOID="IT.USUBJID" Value="CDISC01.200005"/>
<ItemData ItemOID="IT.SUPPCM.IDVAR" Value="CMSEQ"/>
<ItemData ItemOID="IT.SUPPCM.IDVARVAL" Value="1"/>
<ItemData ItemOID="IT.SUPPCM.QNAM" Value="ATC4CODE"/>
<ItemData ItemOID="IT.SUPPCM.QLABEL" Value="WHO_DRUG ATC Level 4 Code"/>
<ItemData ItemOID="IT.SUPPCM.QVAL" Value="N06DA"/>
<ItemData ItemOID="IT.SUPPCM.QORIG" Value="Assigned"/>
<ItemData ItemOID="IT.SUPPCM.QEVAL" Value="CLINICAL STUDY SPONSOR"/>
</ItemGroupData>
<ItemGroupData ItemGroupOID="IG.SUPPCM" data:ItemGroupDataSeq="111">
<ItemData ItemOID="IT.STUDYID" Value="CDISC01"/>
<ItemData ItemOID="IT.RDOMAIN" Value="CM"/>
<ItemData ItemOID="IT.USUBJID" Value="CDISC01.200005"/>
<ItemData ItemOID="IT.SUPPCM.IDVAR" Value="CMSEQ"/>
<ItemData ItemOID="IT.SUPPCM.IDVARVAL" Value="1"/>
<ItemData ItemOID="IT.SUPPCM.QNAM" Value="ATC4TERM"/>
<ItemData ItemOID="IT.SUPPCM.QLABEL" Value="ATC4 Drug Class Term"/>
<ItemData ItemOID="IT.SUPPCM.QVAL" Value="ANTICHOLINESTERASES"/>
<ItemData ItemOID="IT.SUPPCM.QORIG" Value="Assigned"/>
<ItemData ItemOID="IT.SUPPCM.QEVAL" Value="CLINICAL STUDY SPONSOR"/>
</ItemGroupData>
<ItemGroupData ItemGroupOID="IG.SUPPCM" data:ItemGroupDataSeq="112">
<ItemData ItemOID="IT.STUDYID" Value="CDISC01"/>
<ItemData ItemOID="IT.RDOMAIN" Value="CM"/>
<ItemData ItemOID="IT.USUBJID" Value="CDISC01.200005"/>
<ItemData ItemOID="IT.SUPPCM.IDVAR" Value="CMSEQ"/>
<ItemData ItemOID="IT.SUPPCM.IDVARVAL" Value="1"/>
<ItemData ItemOID="IT.SUPPCM.QNAM" Value="CPREFCD"/>
<ItemData ItemOID="IT.SUPPCM.QLABEL" Value="WHO_DRUG Drug Code"/>
<ItemData ItemOID="IT.SUPPCM.QVAL" Value="01318901001"/>
<ItemData ItemOID="IT.SUPPCM.QORIG" Value="Assigned"/>
<ItemData ItemOID="IT.SUPPCM.QEVAL" Value="CLINICAL STUDY SPONSOR"/>
</ItemGroupData>
<ItemGroupData ItemGroupOID="IG.SUPPCM" data:ItemGroupDataSeq="113">
<ItemData ItemOID="IT.STUDYID" Value="CDISC01"/>
<ItemData ItemOID="IT.RDOMAIN" Value="CM"/>
<ItemData ItemOID="IT.USUBJID" Value="CDISC01.200005"/>
<ItemData ItemOID="IT.SUPPCM.IDVAR" Value="CMSEQ"/>
<ItemData ItemOID="IT.SUPPCM.IDVARVAL" Value="2"/>
<ItemData ItemOID="IT.SUPPCM.QNAM" Value="ATC4CODE"/>
<ItemData ItemOID="IT.SUPPCM.QLABEL" Value="WHO_DRUG ATC Level 4 Code"/>
<ItemData ItemOID="IT.SUPPCM.QVAL" Value="A12AA"/>
<ItemData ItemOID="IT.SUPPCM.QORIG" Value="Assigned"/>
<ItemData ItemOID="IT.SUPPCM.QEVAL" Value="CLINICAL STUDY SPONSOR"/>
</ItemGroupData>
<ItemGroupData ItemGroupOID="IG.SUPPCM" data:ItemGroupDataSeq="114">
<ItemData ItemOID="IT.STUDYID" Value="CDISC01"/>
<ItemData ItemOID="IT.RDOMAIN" Value="CM"/>
<ItemData ItemOID="IT.USUBJID" Value="CDISC01.200005"/>
<ItemData ItemOID="IT.SUPPCM.IDVAR" Value="CMSEQ"/>
<ItemData ItemOID="IT.SUPPCM.IDVARVAL" Value="2"/>
<ItemData ItemOID="IT.SUPPCM.QNAM" Value="ATC4TERM"/>
<ItemData ItemOID="IT.SUPPCM.QLABEL" Value="ATC4 Drug Class Term"/>
<ItemData ItemOID="IT.SUPPCM.QVAL" Value="CALCIUM"/>
<ItemData ItemOID="IT.SUPPCM.QORIG" Value="Assigned"/>
<ItemData ItemOID="IT.SUPPCM.QEVAL" Value="CLINICAL STUDY SPONSOR"/>
</ItemGroupData>
<ItemGroupData ItemGroupOID="IG.SUPPCM" data:ItemGroupDataSeq="115">
<ItemData ItemOID="IT.STUDYID" Value="CDISC01"/>
<ItemData ItemOID="IT.RDOMAIN" Value="CM"/>
<ItemData ItemOID="IT.USUBJID" Value="CDISC01.200005"/>
<ItemData ItemOID="IT.SUPPCM.IDVAR" Value="CMSEQ"/>
<ItemData ItemOID="IT.SUPPCM.IDVARVAL" Value="2"/>
<ItemData ItemOID="IT.SUPPCM.QNAM" Value="CPREFCD"/>
<ItemData ItemOID="IT.SUPPCM.QLABEL" Value="WHO_DRUG Drug Code"/>
<ItemData ItemOID="IT.SUPPCM.QVAL" Value="00751501001"/>
<ItemData ItemOID="IT.SUPPCM.QORIG" Value="Assigned"/>
<ItemData ItemOID="IT.SUPPCM.QEVAL" Value="CLINICAL STUDY SPONSOR"/>
</ItemGroupData>
<ItemGroupData ItemGroupOID="IG.SUPPCM" data:ItemGroupDataSeq="116">
<ItemData ItemOID="IT.STUDYID" Value="CDISC01"/>
<ItemData ItemOID="IT.RDOMAIN" Value="CM"/>
<ItemData ItemOID="IT.USUBJID" Value="CDISC01.200005"/>
<ItemData ItemOID="IT.SUPPCM.IDVAR" Value="CMSEQ"/>
<ItemData ItemOID="IT.SUPPCM.IDVARVAL" Value="3"/>
<ItemData ItemOID="IT.SUPPCM.QNAM" Value="ATC4CODE"/>
<ItemData ItemOID="IT.SUPPCM.QLABEL" Value="WHO_DRUG ATC Level 4 Code"/>
<ItemData ItemOID="IT.SUPPCM.QVAL" Value="M01"/>
<ItemData ItemOID="IT.SUPPCM.QORIG" Value="Assigned"/>
<ItemData ItemOID="IT.SUPPCM.QEVAL" Value="CLINICAL STUDY SPONSOR"/>
</ItemGroupData>
<ItemGroupData ItemGroupOID="IG.SUPPCM" data:ItemGroupDataSeq="117">
<ItemData ItemOID="IT.STUDYID" Value="CDISC01"/>
<ItemData ItemOID="IT.RDOMAIN" Value="CM"/>
<ItemData ItemOID="IT.USUBJID" Value="CDISC01.200005"/>
<ItemData ItemOID="IT.SUPPCM.IDVAR" Value="CMSEQ"/>
<ItemData ItemOID="IT.SUPPCM.IDVARVAL" Value="3"/>
<ItemData ItemOID="IT.SUPPCM.QNAM" Value="ATC4TERM"/>
<ItemData ItemOID="IT.SUPPCM.QLABEL" Value="ATC4 Drug Class Term"/>
<ItemData ItemOID="IT.SUPPCM.QVAL" Value="ANTIINFLAMMATORY AND ANTIRHEUMATIC PRODUCTS"/>
<ItemData ItemOID="IT.SUPPCM.QORIG" Value="Assigned"/>
<ItemData ItemOID="IT.SUPPCM.QEVAL" Value="CLINICAL STUDY SPONSOR"/>
</ItemGroupData>
<ItemGroupData ItemGroupOID="IG.SUPPCM" data:ItemGroupDataSeq="118">
<ItemData ItemOID="IT.STUDYID" Value="CDISC01"/>
<ItemData ItemOID="IT.RDOMAIN" Value="CM"/>
<ItemData ItemOID="IT.USUBJID" Value="CDISC01.200005"/>
<ItemData ItemOID="IT.SUPPCM.IDVAR" Value="CMSEQ"/>
<ItemData ItemOID="IT.SUPPCM.IDVARVAL" Value="3"/>
<ItemData ItemOID="IT.SUPPCM.QNAM" Value="CPREFCD"/>
<ItemData ItemOID="IT.SUPPCM.QLABEL" Value="WHO_DRUG Drug Code"/>
<ItemData ItemOID="IT.SUPPCM.QVAL" Value="00109201001"/>
<ItemData ItemOID="IT.SUPPCM.QORIG" Value="Assigned"/>
<ItemData ItemOID="IT.SUPPCM.QEVAL" Value="CLINICAL STUDY SPONSOR"/>
</ItemGroupData>
</ClinicalData>
</ODM>
