<?xml version="1.0" encoding="UTF-8"?>
<!-- Produced from SAS data using SAS Clinical Standards Toolkit -->
<ODM
xmlns="http://www.cdisc.org/ns/odm/v1.3"
xmlns:data="http://www.cdisc.org/ns/Dataset-XML/v1.0"
ODMVersion="1.3.2"
FileType="Snapshot"
FileOID="cdisc01.SV"
PriorFileOID="www.cdisc.org.Studycdisc01-Define-XML_2.0.0"
CreationDateTime="2022-05-31T16:59:27"
data:DatasetXMLVersion="1.0.0">
<ClinicalData StudyOID="cdisc01" MetaDataVersionOID="MDV.CDISC01.SDTMIG.3.1.2.SDTM.1.2">
<ItemGroupData ItemGroupOID="IG.SV" data:ItemGroupDataSeq="1">
<ItemData ItemOID="IT.STUDYID" Value="CDISC01"/>
<ItemData ItemOID="IT.SV.DOMAIN" Value="SV"/>
<ItemData ItemOID="IT.USUBJID" Value="CDISC01.100008"/>
<ItemData ItemOID="IT.SV.VISITNUM" Value="1"/>
<ItemData ItemOID="IT.SV.VISIT" Value="SCREEN"/>
<ItemData ItemOID="IT.SV.VISITDY" Value="-13"/>
<ItemData ItemOID="IT.SV.SVSTDTC" Value="2003-04-15"/>
<ItemData ItemOID="IT.SV.SVENDTC" Value="2003-04-15"/>
<ItemData ItemOID="IT.SV.SVSTDY" Value="-14"/>
</ItemGroupData>
<ItemGroupData ItemGroupOID="IG.SV" data:ItemGroupDataSeq="2">
<ItemData ItemOID="IT.STUDYID" Value="CDISC01"/>
<ItemData ItemOID="IT.SV.DOMAIN" Value="SV"/>
<ItemData ItemOID="IT.USUBJID" Value="CDISC01.100008"/>
<ItemData ItemOID="IT.SV.VISITNUM" Value="2"/>
<ItemData ItemOID="IT.SV.VISIT" Value="BASELINE"/>
<ItemData ItemOID="IT.SV.VISITDY" Value="1"/>
<ItemData ItemOID="IT.SV.SVSTDTC" Value="2003-04-29"/>
<ItemData ItemOID="IT.SV.SVENDTC" Value="2003-04-29"/>
<ItemData ItemOID="IT.SV.SVSTDY" Value="1"/>
</ItemGroupData>
<ItemGroupData ItemGroupOID="IG.SV" data:ItemGroupDataSeq="3">
<ItemData ItemOID="IT.STUDYID" Value="CDISC01"/>
<ItemData ItemOID="IT.SV.DOMAIN" Value="SV"/>
<ItemData ItemOID="IT.USUBJID" Value="CDISC01.100008"/>
<ItemData ItemOID="IT.SV.VISITNUM" Value="3"/>
<ItemData ItemOID="IT.SV.VISIT" Value="WEEK 2"/>
<ItemData ItemOID="IT.SV.VISITDY" Value="15"/>
<ItemData ItemOID="IT.SV.SVSTDTC" Value="2003-05-13"/>
<ItemData ItemOID="IT.SV.SVENDTC" Value="2003-05-13"/>
<ItemData ItemOID="IT.SV.SVSTDY" Value="15"/>
</ItemGroupData>
<ItemGroupData ItemGroupOID="IG.SV" data:ItemGroupDataSeq="4">
<ItemData ItemOID="IT.STUDYID" Value="CDISC01"/>
<ItemData ItemOID="IT.SV.DOMAIN" Value="SV"/>
<ItemData ItemOID="IT.USUBJID" Value="CDISC01.100008"/>
<ItemData ItemOID="IT.SV.VISITNUM" Value="10"/>
<ItemData ItemOID="IT.SV.VISIT" Value="WEEK 24"/>
<ItemData ItemOID="IT.SV.VISITDY" Value="169"/>
<ItemData ItemOID="IT.SV.SVSTDTC" Value="2003-10-13"/>
<ItemData ItemOID="IT.SV.SVENDTC" Value="2003-10-13"/>
<ItemData ItemOID="IT.SV.SVSTDY" Value="168"/>
</ItemGroupData>
<ItemGroupData ItemGroupOID="IG.SV" data:ItemGroupDataSeq="5">
<ItemData ItemOID="IT.STUDYID" Value="CDISC01"/>
<ItemData ItemOID="IT.SV.DOMAIN" Value="SV"/>
<ItemData ItemOID="IT.USUBJID" Value="CDISC01.100014"/>
<ItemData ItemOID="IT.SV.VISITNUM" Value="1"/>
<ItemData ItemOID="IT.SV.VISIT" Value="SCREEN"/>
<ItemData ItemOID="IT.SV.VISITDY" Value="-13"/>
<ItemData ItemOID="IT.SV.SVSTDTC" Value="2003-10-06"/>
<ItemData ItemOID="IT.SV.SVENDTC" Value="2003-10-06"/>
<ItemData ItemOID="IT.SV.SVSTDY" Value="-9"/>
</ItemGroupData>
<ItemGroupData ItemGroupOID="IG.SV" data:ItemGroupDataSeq="6">
<ItemData ItemOID="IT.STUDYID" Value="CDISC01"/>
<ItemData ItemOID="IT.SV.DOMAIN" Value="SV"/>
<ItemData ItemOID="IT.USUBJID" Value="CDISC01.100014"/>
<ItemData ItemOID="IT.SV.VISITNUM" Value="2"/>
<ItemData ItemOID="IT.SV.VISIT" Value="BASELINE"/>
<ItemData ItemOID="IT.SV.VISITDY" Value="1"/>
<ItemData ItemOID="IT.SV.SVSTDTC" Value="2003-10-15"/>
<ItemData ItemOID="IT.SV.SVENDTC" Value="2003-10-15"/>
<ItemData ItemOID="IT.SV.SVSTDY" Value="1"/>
</ItemGroupData>
<ItemGroupData ItemGroupOID="IG.SV" data:ItemGroupDataSeq="7">
<ItemData ItemOID="IT.STUDYID" Value="CDISC01"/>
<ItemData ItemOID="IT.SV.DOMAIN" Value="SV"/>
<ItemData ItemOID="IT.USUBJID" Value="CDISC01.100014"/>
<ItemData ItemOID="IT.SV.VISITNUM" Value="3"/>
<ItemData ItemOID="IT.SV.VISIT" Value="WEEK 2"/>
<ItemData ItemOID="IT.SV.VISITDY" Value="15"/>
<ItemData ItemOID="IT.SV.SVSTDTC" Value="2003-10-31"/>
<ItemData ItemOID="IT.SV.SVENDTC" Value="2003-10-31"/>
<ItemData ItemOID="IT.SV.SVSTDY" Value="17"/>
</ItemGroupData>
<ItemGroupData ItemGroupOID="IG.SV" data:ItemGroupDataSeq="8">
<ItemData ItemOID="IT.STUDYID" Value="CDISC01"/>
<ItemData ItemOID="IT.SV.DOMAIN" Value="SV"/>
<ItemData ItemOID="IT.USUBJID" Value="CDISC01.100014"/>
<ItemData ItemOID="IT.SV.VISITNUM" Value="10"/>
<ItemData ItemOID="IT.SV.VISIT" Value="WEEK 24"/>
<ItemData ItemOID="IT.SV.VISITDY" Value="169"/>
<ItemData ItemOID="IT.SV.SVSTDTC" Value="2004-03-30"/>
<ItemData ItemOID="IT.SV.SVENDTC" Value="2004-03-30"/>
<ItemData ItemOID="IT.SV.SVSTDY" Value="168"/>
</ItemGroupData>
<ItemGroupData ItemGroupOID="IG.SV" data:ItemGroupDataSeq="9">
<ItemData ItemOID="IT.STUDYID" Value="CDISC01"/>
<ItemData ItemOID="IT.SV.DOMAIN" Value="SV"/>
<ItemData ItemOID="IT.USUBJID" Value="CDISC01.200001"/>
<ItemData ItemOID="IT.SV.VISITNUM" Value="1"/>
<ItemData ItemOID="IT.SV.VISIT" Value="SCREEN"/>
<ItemData ItemOID="IT.SV.VISITDY" Value="-13"/>
<ItemData ItemOID="IT.SV.SVSTDTC" Value="2003-09-09"/>
<ItemData ItemOID="IT.SV.SVENDTC" Value="2003-09-09"/>
<ItemData ItemOID="IT.SV.SVSTDY" Value="-21"/>
</ItemGroupData>
<ItemGroupData ItemGroupOID="IG.SV" data:ItemGroupDataSeq="10">
<ItemData ItemOID="IT.STUDYID" Value="CDISC01"/>
<ItemData ItemOID="IT.SV.DOMAIN" Value="SV"/>
<ItemData ItemOID="IT.USUBJID" Value="CDISC01.200001"/>
<ItemData ItemOID="IT.SV.VISITNUM" Value="2"/>
<ItemData ItemOID="IT.SV.VISIT" Value="BASELINE"/>
<ItemData ItemOID="IT.SV.VISITDY" Value="1"/>
<ItemData ItemOID="IT.SV.SVSTDTC" Value="2003-09-30"/>
<ItemData ItemOID="IT.SV.SVENDTC" Value="2003-09-30"/>
<ItemData ItemOID="IT.SV.SVSTDY" Value="1"/>
</ItemGroupData>
<ItemGroupData ItemGroupOID="IG.SV" data:ItemGroupDataSeq="11">
<ItemData ItemOID="IT.STUDYID" Value="CDISC01"/>
<ItemData ItemOID="IT.SV.DOMAIN" Value="SV"/>
<ItemData ItemOID="IT.USUBJID" Value="CDISC01.200001"/>
<ItemData ItemOID="IT.SV.VISITNUM" Value="3"/>
<ItemData ItemOID="IT.SV.VISIT" Value="WEEK 2"/>
<ItemData ItemOID="IT.SV.VISITDY" Value="15"/>
<ItemData ItemOID="IT.SV.SVSTDTC" Value="2003-10-14"/>
<ItemData ItemOID="IT.SV.SVENDTC" Value="2003-10-14"/>
<ItemData ItemOID="IT.SV.SVSTDY" Value="15"/>
</ItemGroupData>
<ItemGroupData ItemGroupOID="IG.SV" data:ItemGroupDataSeq="12">
<ItemData ItemOID="IT.STUDYID" Value="CDISC01"/>
<ItemData ItemOID="IT.SV.DOMAIN" Value="SV"/>
<ItemData ItemOID="IT.USUBJID" Value="CDISC01.200001"/>
<ItemData ItemOID="IT.SV.VISITNUM" Value="10"/>
<ItemData ItemOID="IT.SV.VISIT" Value="WEEK 24"/>
<ItemData ItemOID="IT.SV.VISITDY" Value="169"/>
<ItemData ItemOID="IT.SV.SVSTDTC" Value="2004-02-02"/>
<ItemData ItemOID="IT.SV.SVENDTC" Value="2004-02-02"/>
<ItemData ItemOID="IT.SV.SVSTDY" Value="126"/>
</ItemGroupData>
<ItemGroupData ItemGroupOID="IG.SV" data:ItemGroupDataSeq="13">
<ItemData ItemOID="IT.STUDYID" Value="CDISC01"/>
<ItemData ItemOID="IT.SV.DOMAIN" Value="SV"/>
<ItemData ItemOID="IT.USUBJID" Value="CDISC01.200002"/>
<ItemData ItemOID="IT.SV.VISITNUM" Value="1"/>
<ItemData ItemOID="IT.SV.VISIT" Value="SCREEN"/>
<ItemData ItemOID="IT.SV.VISITDY" Value="-13"/>
<ItemData ItemOID="IT.SV.SVSTDTC" Value="2003-09-18"/>
<ItemData ItemOID="IT.SV.SVENDTC" Value="2003-09-18"/>
<ItemData ItemOID="IT.SV.SVSTDY" Value="-22"/>
</ItemGroupData>
<ItemGroupData ItemGroupOID="IG.SV" data:ItemGroupDataSeq="14">
<ItemData ItemOID="IT.STUDYID" Value="CDISC01"/>
<ItemData ItemOID="IT.SV.DOMAIN" Value="SV"/>
<ItemData ItemOID="IT.USUBJID" Value="CDISC01.200002"/>
<ItemData ItemOID="IT.SV.VISITNUM" Value="2"/>
<ItemData ItemOID="IT.SV.VISIT" Value="BASELINE"/>
<ItemData ItemOID="IT.SV.VISITDY" Value="1"/>
<ItemData ItemOID="IT.SV.SVSTDTC" Value="2003-10-10"/>
<ItemData ItemOID="IT.SV.SVENDTC" Value="2003-10-10"/>
<ItemData ItemOID="IT.SV.SVSTDY" Value="1"/>
</ItemGroupData>
<ItemGroupData ItemGroupOID="IG.SV" data:ItemGroupDataSeq="15">
<ItemData ItemOID="IT.STUDYID" Value="CDISC01"/>
<ItemData ItemOID="IT.SV.DOMAIN" Value="SV"/>
<ItemData ItemOID="IT.USUBJID" Value="CDISC01.200002"/>
<ItemData ItemOID="IT.SV.VISITNUM" Value="3"/>
<ItemData ItemOID="IT.SV.VISIT" Value="WEEK 2"/>
<ItemData ItemOID="IT.SV.VISITDY" Value="15"/>
<ItemData ItemOID="IT.SV.SVSTDTC" Value="2003-10-24"/>
<ItemData ItemOID="IT.SV.SVENDTC" Value="2003-10-24"/>
<ItemData ItemOID="IT.SV.SVSTDY" Value="15"/>
</ItemGroupData>
<ItemGroupData ItemGroupOID="IG.SV" data:ItemGroupDataSeq="16">
<ItemData ItemOID="IT.STUDYID" Value="CDISC01"/>
<ItemData ItemOID="IT.SV.DOMAIN" Value="SV"/>
<ItemData ItemOID="IT.USUBJID" Value="CDISC01.200002"/>
<ItemData ItemOID="IT.SV.VISITNUM" Value="10"/>
<ItemData ItemOID="IT.SV.VISIT" Value="WEEK 24"/>
<ItemData ItemOID="IT.SV.VISITDY" Value="169"/>
<ItemData ItemOID="IT.SV.SVSTDTC" Value="2004-03-29"/>
<ItemData ItemOID="IT.SV.SVENDTC" Value="2004-03-29"/>
<ItemData ItemOID="IT.SV.SVSTDY" Value="172"/>
</ItemGroupData>
<ItemGroupData ItemGroupOID="IG.SV" data:ItemGroupDataSeq="17">
<ItemData ItemOID="IT.STUDYID" Value="CDISC01"/>
<ItemData ItemOID="IT.SV.DOMAIN" Value="SV"/>
<ItemData ItemOID="IT.USUBJID" Value="CDISC01.200005"/>
<ItemData ItemOID="IT.SV.VISITNUM" Value="1"/>
<ItemData ItemOID="IT.SV.VISIT" Value="SCREEN"/>
<ItemData ItemOID="IT.SV.VISITDY" Value="-13"/>
<ItemData ItemOID="IT.SV.SVSTDTC" Value="2003-09-15"/>
<ItemData ItemOID="IT.SV.SVENDTC" Value="2003-09-15"/>
</ItemGroupData>
</ClinicalData>
</ODM>
