<?xml version="1.0" encoding="UTF-8"?>

<ODM xmlns="http://www.cdisc.org/ns/odm/v1.3" xmlns:xs="http://www.w3.org/2001/XMLSchema-instance" xmlns:nciodm="http://ncicb.nci.nih.gov/xml/odm/EVS/CDISC" xs:schemaLocation="http://www.nci.nih.gov/EVS/CDISC ../schema/controlledterminology1-0-0.xsd" FileType="Snapshot" FileOID="CDISC_CT.SDTM.2014-06-27" Granularity="Metadata" CreationDateTime="2014-06-23T16:20:15" AsOfDateTime="2014-06-27T00:00:00" ODMVersion="1.3.1" Originator="CDISC XML Technologies Team (Terminology2ODM converter)" SourceSystem="NCI Thesaurus" SourceSystemVersion="2014-06-27">
    <Study OID="CDISC_CT.SDTM.2014-06-27">
        <GlobalVariables>
            <StudyName>CDISC SDTM Controlled Terminology</StudyName>
            <StudyDescription>CDISC SDTM Controlled Terminology, 2014-06-27</StudyDescription>
            <ProtocolName>CDISC SDTM Controlled Terminology</ProtocolName>
        </GlobalVariables>
        <MetaDataVersion OID="CDISC_CT_MetaDataVersion.SDTM.2014-06-27" Name="CDISC SDTM Controlled Terminology" Description="CDISC SDTM Controlled Terminology, 2014-06-27">
            <CodeList OID="CL.C66767.ACN" Name="Action Taken with Study Treatment" DataType="text" nciodm:ExtCodeID="C66767" nciodm:CodeListExtensible="No">
                <Description>
                    <TranslatedText xml:lang="en">Terminology specifying changes to the study treatment as a result of an adverse event.</TranslatedText>
                </Description>
                <EnumeratedItem CodedValue="DOSE INCREASED" nciodm:ExtCodeID="C49503">
                    <nciodm:CDISCDefinition>An indication that a medication schedule was modified by addition; either by changing the frequency, strength or amount. (NCI)</nciodm:CDISCDefinition>
                    <nciodm:PreferredTerm>Dose Increased</nciodm:PreferredTerm>
                </EnumeratedItem>
                <EnumeratedItem CodedValue="DOSE NOT CHANGED" nciodm:ExtCodeID="C49504">
                    <nciodm:CDISCDefinition>An indication that a medication schedule was maintained. (NCI)</nciodm:CDISCDefinition>
                    <nciodm:PreferredTerm>Dose Not Changed</nciodm:PreferredTerm>
                </EnumeratedItem>
                <EnumeratedItem CodedValue="DOSE REDUCED" nciodm:ExtCodeID="C49505">
                    <nciodm:CDISCDefinition>An indication that a medication schedule was modified by subtraction, either by changing the frequency, strength or amount. (NCI)</nciodm:CDISCDefinition>
                    <nciodm:PreferredTerm>Dose Reduced</nciodm:PreferredTerm>
                </EnumeratedItem>
                <EnumeratedItem CodedValue="DRUG INTERRUPTED" nciodm:ExtCodeID="C49501">
                    <nciodm:CDISCDefinition>An indication that a medication schedule was modified by temporarily terminating a prescribed regimen of medication. (NCI)</nciodm:CDISCDefinition>
                    <nciodm:PreferredTerm>Drug Interrupted</nciodm:PreferredTerm>
                </EnumeratedItem>
                <EnumeratedItem CodedValue="DRUG WITHDRAWN" nciodm:ExtCodeID="C49502">
                    <nciodm:CDISCDefinition>An indication that a medication schedule was modified through termination of a prescribed regimen of medication. (NCI)</nciodm:CDISCDefinition>
                    <nciodm:PreferredTerm>Drug Withdrawn</nciodm:PreferredTerm>
                </EnumeratedItem>
                <EnumeratedItem CodedValue="NOT APPLICABLE" nciodm:ExtCodeID="C48660">
                    <nciodm:CDISCSynonym>NA</nciodm:CDISCSynonym>
                    <nciodm:CDISCSynonym>Not Applicable</nciodm:CDISCSynonym>
                    <nciodm:CDISCDefinition>Determination of a value is not relevant in the current context. (NCI)</nciodm:CDISCDefinition>
                    <nciodm:PreferredTerm>Not Applicable</nciodm:PreferredTerm>
                </EnumeratedItem>
                <EnumeratedItem CodedValue="UNKNOWN" nciodm:ExtCodeID="C17998">
                    <nciodm:CDISCSynonym>U</nciodm:CDISCSynonym>
                    <nciodm:CDISCSynonym>Unknown</nciodm:CDISCSynonym>
                    <nciodm:CDISCDefinition>Not known, not observed, not recorded, or refused. (NCI)</nciodm:CDISCDefinition>
                    <nciodm:PreferredTerm>Unknown</nciodm:PreferredTerm>
                </EnumeratedItem>
                <nciodm:CDISCSubmissionValue>ACN</nciodm:CDISCSubmissionValue>
                <nciodm:CDISCSynonym>Action Taken with Study Treatment</nciodm:CDISCSynonym>
                <nciodm:PreferredTerm>CDISC SDTM Action Taken with Study Treatment Terminology</nciodm:PreferredTerm>
            </CodeList>
            <CodeList OID="CL.C101865.ACSPCAT" Name="Acute Coronary Syndrome Presentation Category" DataType="text" nciodm:ExtCodeID="C101865" nciodm:CodeListExtensible="No">
                <Description>
                    <TranslatedText xml:lang="en">A classification of the presentation of acute coronary syndrome.</TranslatedText>
                </Description>
                <EnumeratedItem CodedValue="NON-ST ELEVATION MYOCARDIAL INFARCTION" nciodm:ExtCodeID="C80383">
                    <nciodm:CDISCSynonym>NON-STEMI</nciodm:CDISCSynonym>
                    <nciodm:CDISCSynonym>NSTEMI</nciodm:CDISCSynonym>
                    <nciodm:CDISCDefinition>A myocardial infarction that does not produce elevation in the ST segments of the ECG.</nciodm:CDISCDefinition>
                    <nciodm:PreferredTerm>Non-ST Elevation Myocardial Infarction by ECG Finding</nciodm:PreferredTerm>
                </EnumeratedItem>
                <EnumeratedItem CodedValue="OTHER" nciodm:ExtCodeID="C17649">
                    <nciodm:CDISCSynonym>Other</nciodm:CDISCSynonym>
                    <nciodm:CDISCDefinition>Different than the one(s) previously specified or mentioned. (NCI)</nciodm:CDISCDefinition>
                    <nciodm:PreferredTerm>Other</nciodm:PreferredTerm>
                </EnumeratedItem>
                <EnumeratedItem CodedValue="ST ELEVATION MYOCARDIAL INFARCTION" nciodm:ExtCodeID="C101888">
                    <nciodm:CDISCSynonym>STEMI</nciodm:CDISCSynonym>
                    <nciodm:CDISCDefinition>A myocardial infarction that produces elevation in the ST segments of the ECG.</nciodm:CDISCDefinition>
                    <nciodm:PreferredTerm>ST Elevation Myocardial Infarction by ECG Finding</nciodm:PreferredTerm>
                </EnumeratedItem>
                <EnumeratedItem CodedValue="STABLE ANGINA" nciodm:ExtCodeID="C66914">
                    <nciodm:CDISCDefinition>Angina pectoris which has not recently changed in frequency, duration or intensity. Stable angina pectoris is relieved by rest or administration of oral, sublingual or transdermal antianginal medications.</nciodm:CDISCDefinition>
                    <nciodm:PreferredTerm>Stable Angina</nciodm:PreferredTerm>
                </EnumeratedItem>
                <EnumeratedItem CodedValue="UNSTABLE ANGINA" nciodm:ExtCodeID="C66911">
                    <nciodm:CDISCDefinition>Angina pectoris (or equivalent type of ischemic discomfort) which has recently changed in frequency, duration, intensity, or occurs at rest.</nciodm:CDISCDefinition>
                    <nciodm:PreferredTerm>Unstable Angina</nciodm:PreferredTerm>
                </EnumeratedItem>
                <nciodm:CDISCSubmissionValue>ACSPCAT</nciodm:CDISCSubmissionValue>
                <nciodm:CDISCSynonym>Acute Coronary Syndrome Presentation Category</nciodm:CDISCSynonym>
                <nciodm:PreferredTerm>CDISC SDTM Acute Coronary Syndrome Presentation Category Terminology</nciodm:PreferredTerm>
            </CodeList>
            <CodeList OID="CL.C66781.AGEU" Name="Age Unit" DataType="text" nciodm:ExtCodeID="C66781" nciodm:CodeListExtensible="No">
                <Description>
                    <TranslatedText xml:lang="en">Those units of time that are routinely used to express the age of a subject.</TranslatedText>
                </Description>
                <EnumeratedItem CodedValue="DAYS" nciodm:ExtCodeID="C25301">
                    <nciodm:CDISCSynonym>Day</nciodm:CDISCSynonym>
                    <nciodm:CDISCDefinition>The time for Earth to make a complete rotation on its axis; ordinarily divided into twenty-four hours. This also refers to a specific day. (NCI)</nciodm:CDISCDefinition>
                    <nciodm:PreferredTerm>Day</nciodm:PreferredTerm>
                </EnumeratedItem>
                <EnumeratedItem CodedValue="HOURS" nciodm:ExtCodeID="C25529">
                    <nciodm:CDISCSynonym>Hour</nciodm:CDISCSynonym>
                    <nciodm:CDISCSynonym>hr</nciodm:CDISCSynonym>
                    <nciodm:CDISCDefinition>A unit measure of time equal to 3,600 seconds or 60 minutes. It is approximately 1/24 of a median day. (NCI)</nciodm:CDISCDefinition>
                    <nciodm:PreferredTerm>Hour</nciodm:PreferredTerm>
                </EnumeratedItem>
                <EnumeratedItem CodedValue="MONTHS" nciodm:ExtCodeID="C29846">
                    <nciodm:CDISCSynonym>Month</nciodm:CDISCSynonym>
                    <nciodm:CDISCDefinition>One of the 12 divisions of a year as determined by a calendar. It corresponds to the unit of time of approximately to one cycle of the moon's phases, about 30 days or 4 weeks. (NCI)</nciodm:CDISCDefinition>
                    <nciodm:PreferredTerm>Month</nciodm:PreferredTerm>
                </EnumeratedItem>
                <EnumeratedItem CodedValue="WEEKS" nciodm:ExtCodeID="C29844">
                    <nciodm:CDISCSynonym>Week</nciodm:CDISCSynonym>
                    <nciodm:CDISCDefinition>Any period of seven consecutive days. (NCI)</nciodm:CDISCDefinition>
                    <nciodm:PreferredTerm>Week</nciodm:PreferredTerm>
                </EnumeratedItem>
                <EnumeratedItem CodedValue="YEARS" nciodm:ExtCodeID="C29848">
                    <nciodm:CDISCSynonym>Year</nciodm:CDISCSynonym>
                    <nciodm:CDISCDefinition>The period of time that it takes for Earth to make a complete revolution around the sun, approximately 365 days; a specific one year period. (NCI)</nciodm:CDISCDefinition>
                    <nciodm:PreferredTerm>Year</nciodm:PreferredTerm>
                </EnumeratedItem>
                <nciodm:CDISCSubmissionValue>AGEU</nciodm:CDISCSubmissionValue>
                <nciodm:CDISCSynonym>Age Unit</nciodm:CDISCSynonym>
                <nciodm:PreferredTerm>CDISC SDTM Age Unit Terminology</nciodm:PreferredTerm>
            </CodeList>
            <CodeList OID="CL.C74456.LOC" Name="Anatomical Location" DataType="text" nciodm:ExtCodeID="C74456" nciodm:CodeListExtensible="Yes">
                <Description>
                    <TranslatedText xml:lang="en">Terminology codelist used for anatomical location within CDISC.</TranslatedText>
                </Description>
                <EnumeratedItem CodedValue="5TH LUMBAR SPINOUS PROCESS" nciodm:ExtCodeID="C116163">
                    <nciodm:CDISCDefinition>The spinous process of the 5th lumbar vertebra.</nciodm:CDISCDefinition>
                    <nciodm:PreferredTerm>Fifth Lumbar Spinous Process</nciodm:PreferredTerm>
                </EnumeratedItem>
                <EnumeratedItem CodedValue="ABDOMINAL CAVITY" nciodm:ExtCodeID="C12664">
                    <nciodm:CDISCSynonym>Abdomen</nciodm:CDISCSynonym>
                    <nciodm:CDISCSynonym>Abdominal Cavity</nciodm:CDISCSynonym>
                    <nciodm:CDISCDefinition>The portion of the body that lies between the thorax and the pelvis. (NCI)</nciodm:CDISCDefinition>
                    <nciodm:PreferredTerm>Abdominal Cavity</nciodm:PreferredTerm>
                </EnumeratedItem>
                <EnumeratedItem CodedValue="ABDOMINAL LYMPH NODE" nciodm:ExtCodeID="C12360">
                    <nciodm:CDISCDefinition>Any lymph node within the abdomen.</nciodm:CDISCDefinition>
                    <nciodm:PreferredTerm>Intra-Abdominal Lymph Node</nciodm:PreferredTerm>
                </EnumeratedItem>
                <EnumeratedItem CodedValue="ABDOMINAL SKIN" nciodm:ExtCodeID="C52758">
                    <nciodm:CDISCSynonym>Abdominal Skin</nciodm:CDISCSynonym>
                    <nciodm:CDISCDefinition>The skin or integument surrounding the abdomen. (NCI)</nciodm:CDISCDefinition>
                    <nciodm:PreferredTerm>Abdominal Skin</nciodm:PreferredTerm>
                </EnumeratedItem>
                <EnumeratedItem CodedValue="ABDOMINAL WALL" nciodm:ExtCodeID="C77608">
                    <nciodm:CDISCDefinition>The tissues that surround the organs that are present within the abdominal cavity. The abdominal wall tissue is composed of layers of fat, parietal peritoneum, fascia, and muscles. (NCI)</nciodm:CDISCDefinition>
                    <nciodm:PreferredTerm>Abdominal Wall</nciodm:PreferredTerm>
                </EnumeratedItem>
                <EnumeratedItem CodedValue="ABDUCENS NERVE" nciodm:ExtCodeID="C12665">
                    <nciodm:CDISCDefinition>The sixth cranial nerve.</nciodm:CDISCDefinition>
                    <nciodm:PreferredTerm>Abducens Nerve</nciodm:PreferredTerm>
                </EnumeratedItem>
                <EnumeratedItem CodedValue="ACCESSORY RENAL ARTERY" nciodm:ExtCodeID="C116183">
                    <nciodm:CDISCDefinition>An additional renal vessel originating from the aorta and entering the kidney at the proximal or distal end of the organ. Accessory renal arteries are found in 26-30% of humans.</nciodm:CDISCDefinition>
                    <nciodm:PreferredTerm>Accessory Renal Artery</nciodm:PreferredTerm>
                </EnumeratedItem>
                <EnumeratedItem CodedValue="ACETABULUM" nciodm:ExtCodeID="C32042">
                    <nciodm:CDISCSynonym>Acetabulum</nciodm:CDISCSynonym>
                    <nciodm:CDISCDefinition>Two cup shaped areas, one each on the lateral side of the lower pelvis that house the head of the femur to form the ball and socket joint of the hip. (NCI)</nciodm:CDISCDefinition>
                    <nciodm:PreferredTerm>Acetabulum</nciodm:PreferredTerm>
                </EnumeratedItem>
                <EnumeratedItem CodedValue="ACHILLES TENDON" nciodm:ExtCodeID="C32043">
                    <nciodm:CDISCSynonym>Calcaneal Tendon</nciodm:CDISCSynonym>
                    <nciodm:CDISCDefinition>The tendon that connects the heel bone to the calf muscles at the back of the lower leg. (NCI)</nciodm:CDISCDefinition>
                    <nciodm:PreferredTerm>Achilles Tendon</nciodm:PreferredTerm>
                </EnumeratedItem>
                <EnumeratedItem CodedValue="ACROMIOCLAVICULAR JOINT" nciodm:ExtCodeID="C32047">
                    <nciodm:CDISCSynonym>Acromioclavicular Joint</nciodm:CDISCSynonym>
                    <nciodm:CDISCDefinition>The junction of the upper distal end of the scapula to the distal edge of the collarbone, also known as the acromion and the clavicle. (NCI)</nciodm:CDISCDefinition>
                    <nciodm:PreferredTerm>Acromioclavicular Joint</nciodm:PreferredTerm>
                </EnumeratedItem>
                <EnumeratedItem CodedValue="ACROMION" nciodm:ExtCodeID="C32048">
                    <nciodm:CDISCSynonym>Acromion</nciodm:CDISCSynonym>
                    <nciodm:CDISCDefinition>The upper distal process of the scapula. (NCI)</nciodm:CDISCDefinition>
                    <nciodm:PreferredTerm>Acromion</nciodm:PreferredTerm>
                </EnumeratedItem>
                <EnumeratedItem CodedValue="ACUTE MARGINAL ARTERY" nciodm:ExtCodeID="C102285">
                    <nciodm:CDISCSynonym>ACUTE MARGINAL ARTERY SEGMENT(S)</nciodm:CDISCSynonym>
                    <nciodm:CDISCSynonym>AMARG</nciodm:CDISCSynonym>
                    <nciodm:CDISCDefinition>The arteries that arise at the junction of the proximal and mid-right coronary artery conduit segments.</nciodm:CDISCDefinition>
                    <nciodm:PreferredTerm>Acute Marginal Artery</nciodm:PreferredTerm>
                </EnumeratedItem>
                <EnumeratedItem CodedValue="ADRENAL GLAND" nciodm:ExtCodeID="C12666">
                    <nciodm:CDISCSynonym>Adrenal Gland</nciodm:CDISCSynonym>
                    <nciodm:CDISCDefinition>Suprarenal gland. A flattened, roughly triangular body resting upon the upper end of each kidney; it is one of the ductless glands furnishing internal secretions (epinephrine and norepinephrine from the medulla and steroid hormones from the cortex). (NCI)</nciodm:CDISCDefinition>
                    <nciodm:PreferredTerm>Adrenal Gland</nciodm:PreferredTerm>
                </EnumeratedItem>
                <EnumeratedItem CodedValue="AMYGDALA" nciodm:ExtCodeID="C12440">
                    <nciodm:CDISCSynonym>Amygdaloid Nucleus</nciodm:CDISCSynonym>
                    <nciodm:CDISCDefinition>An almond-shaped group of basal nuclei anterior to the inferior horn of the lateral ventricle of the brain, within the temporal lobe. The amygdala is part of the limbic system. (MESH)</nciodm:CDISCDefinition>
                    <nciodm:PreferredTerm>Amygdala</nciodm:PreferredTerm>
                </EnumeratedItem>
                <EnumeratedItem CodedValue="ANASTOMOSIS" nciodm:ExtCodeID="C15609">
                    <nciodm:CDISCSynonym>Anastomosis</nciodm:CDISCSynonym>
                    <nciodm:CDISCDefinition>A natural or surgically-induced connection between tubular structures in the body. (NCI)</nciodm:CDISCDefinition>
                    <nciodm:PreferredTerm>Anastomosis</nciodm:PreferredTerm>
                </EnumeratedItem>
                <EnumeratedItem CodedValue="ANKLE JOINT" nciodm:ExtCodeID="C32078">
                    <nciodm:CDISCSynonym>Ankle</nciodm:CDISCSynonym>
                    <nciodm:CDISCSynonym>Ankle Joint</nciodm:CDISCSynonym>
                    <nciodm:CDISCDefinition>A gliding joint between the distal ends of the tibia and fibula and the proximal end of the talus. (NCI)</nciodm:CDISCDefinition>
                    <nciodm:PreferredTerm>Ankle Joint</nciodm:PreferredTerm>
                </EnumeratedItem>
                <EnumeratedItem CodedValue="ANTERIOR TIBIAL ARTERY" nciodm:ExtCodeID="C12825">
                    <nciodm:CDISCDefinition>An artery of the lower extremity that supplies blood to the anterior part of the leg and the foot.</nciodm:CDISCDefinition>
                    <nciodm:PreferredTerm>Anterior Tibial Artery</nciodm:PreferredTerm>
                </EnumeratedItem>
                <EnumeratedItem CodedValue="ANTRUM PYLORI" nciodm:ExtCodeID="C12259">
                    <nciodm:CDISCSynonym>Antrum Pylori</nciodm:CDISCSynonym>
                    <nciodm:CDISCDefinition>The initial part of the pyloric canal of the stomach. This site contains endocrine cells that produce gastrin and somatostatin. (NCI)</nciodm:CDISCDefinition>
                    <nciodm:PreferredTerm>Antrum Pylori</nciodm:PreferredTerm>
                </EnumeratedItem>
                <EnumeratedItem CodedValue="ANUS" nciodm:ExtCodeID="C43362">
                    <nciodm:CDISCSynonym>Anus</nciodm:CDISCSynonym>
                    <nciodm:CDISCDefinition>The lower opening of the digestive tract, lying in the cleft between the buttocks, through which fecal matter is extruded. (NCI)</nciodm:CDISCDefinition>
                    <nciodm:PreferredTerm>Anus</nciodm:PreferredTerm>
                </EnumeratedItem>
                <EnumeratedItem CodedValue="AORTA" nciodm:ExtCodeID="C12669">
                    <nciodm:CDISCSynonym>Aorta</nciodm:CDISCSynonym>
                    <nciodm:CDISCDefinition>The major arterial trunk that carries oxygenated blood from the left ventricle into the ascending aorta behind the heart, the aortic arch, through the thorax as the descending aorta and through the abdomen as the abdominal aorta; it bifurcates into the left and right common iliac arteries. (NCI)</nciodm:CDISCDefinition>
                    <nciodm:PreferredTerm>Aorta</nciodm:PreferredTerm>
                </EnumeratedItem>
                <EnumeratedItem CodedValue="AORTIC ARCH" nciodm:ExtCodeID="C32123">
                    <nciodm:CDISCSynonym>Aortic Arch</nciodm:CDISCSynonym>
                    <nciodm:CDISCDefinition>The curved section of the aorta between the ascending and the descending tracts. The brachiocephalic, left common carotid and left subclavian arteries branch from the aorta at this section. (NCI)</nciodm:CDISCDefinition>
                    <nciodm:PreferredTerm>Aortic Arch</nciodm:PreferredTerm>
                </EnumeratedItem>
                <EnumeratedItem CodedValue="AORTIC VALVE" nciodm:ExtCodeID="C12670">
                    <nciodm:CDISCDefinition>A valve that is located between and controls the flow of blood from the left ventricle of the heart and the aorta. (NCI)</nciodm:CDISCDefinition>
                    <nciodm:PreferredTerm>Aortic Valve</nciodm:PreferredTerm>
                </EnumeratedItem>
                <EnumeratedItem CodedValue="AORTO-ILIAC PERIPHERAL ARTERY" nciodm:ExtCodeID="C116166">
                    <nciodm:CDISCDefinition>The segment of the blood vessels that includes the iliac artery and its origin from the aorta.</nciodm:CDISCDefinition>
                    <nciodm:PreferredTerm>Aortoiliac Artery Segment</nciodm:PreferredTerm>
                </EnumeratedItem>
                <EnumeratedItem CodedValue="AORTOPULMONARY WINDOW LYMPH NODE" nciodm:ExtCodeID="C116165">
                    <nciodm:CDISCDefinition>A lymph node located in the aortopulmonary window.</nciodm:CDISCDefinition>
                    <nciodm:PreferredTerm>Aortopulmonary Window Lymph Node</nciodm:PreferredTerm>
                </EnumeratedItem>
                <EnumeratedItem CodedValue="APPENDICEAL TIP" nciodm:ExtCodeID="C83470">
                    <nciodm:CDISCDefinition>The distal end of the appendix. (NCI)</nciodm:CDISCDefinition>
                    <nciodm:PreferredTerm>Appendiceal Tip</nciodm:PreferredTerm>
                </EnumeratedItem>
                <EnumeratedItem CodedValue="APPENDICULAR SKELETON" nciodm:ExtCodeID="C49477">
                    <nciodm:CDISCDefinition>The part of the skeleton that includes the bones of the upper and lower limbs, including the shoulder and pelvic girdles</nciodm:CDISCDefinition>
                    <nciodm:PreferredTerm>Appendicular Skeleton</nciodm:PreferredTerm>
                </EnumeratedItem>
                <EnumeratedItem CodedValue="APPENDIX" nciodm:ExtCodeID="C12380">
                    <nciodm:CDISCSynonym>Appendix</nciodm:CDISCSynonym>
                    <nciodm:CDISCDefinition>Small tissue projection existing as a cecal diverticulum with a questionable history of vestigial versus specialized organ. (NCI)</nciodm:CDISCDefinition>
                    <nciodm:PreferredTerm>Appendix</nciodm:PreferredTerm>
                </EnumeratedItem>
                <EnumeratedItem CodedValue="ARM" nciodm:ExtCodeID="C32141">
                    <nciodm:CDISCSynonym>Arm</nciodm:CDISCSynonym>
                    <nciodm:CDISCDefinition>The portion of the upper extremity between the shoulder and the elbow. For clinical purposes this term is also used to refer to the whole superior limb. (NCI)</nciodm:CDISCDefinition>
                    <nciodm:PreferredTerm>Arm</nciodm:PreferredTerm>
                </EnumeratedItem>
                <EnumeratedItem CodedValue="ARM SKIN" nciodm:ExtCodeID="C52754">
                    <nciodm:CDISCSynonym>Arm Skin</nciodm:CDISCSynonym>
                    <nciodm:CDISCDefinition>The skin or integument covering the arm. (NCI)</nciodm:CDISCDefinition>
                    <nciodm:PreferredTerm>Arm Skin</nciodm:PreferredTerm>
                </EnumeratedItem>
                <EnumeratedItem CodedValue="ARTERY" nciodm:ExtCodeID="C12372">
                    <nciodm:CDISCSynonym>Artery</nciodm:CDISCSynonym>
                    <nciodm:CDISCDefinition>A blood vessel that carries blood away from the heart. (NCI)</nciodm:CDISCDefinition>
                    <nciodm:PreferredTerm>Artery</nciodm:PreferredTerm>
                </EnumeratedItem>
                <EnumeratedItem CodedValue="AXIAL SKELETON" nciodm:ExtCodeID="C32172">
                    <nciodm:CDISCDefinition>The part of the skeleton that includes the skull and spinal column and sternum and ribs. (NCI)</nciodm:CDISCDefinition>
                    <nciodm:PreferredTerm>Axial Skeleton</nciodm:PreferredTerm>
                </EnumeratedItem>
                <EnumeratedItem CodedValue="AXILLA" nciodm:ExtCodeID="C12674">
                    <nciodm:CDISCSynonym>Axilla</nciodm:CDISCSynonym>
                    <nciodm:CDISCDefinition>The underside concavity where the arm and the shoulder are joined. (NCI)</nciodm:CDISCDefinition>
                    <nciodm:PreferredTerm>Axilla</nciodm:PreferredTerm>
                </EnumeratedItem>
                <EnumeratedItem CodedValue="AXILLARY ARTERY" nciodm:ExtCodeID="C32169">
                    <nciodm:CDISCDefinition>An artery that originates from the subclavian artery at the lateral margin of the first rib. It supplies the brachial artery.</nciodm:CDISCDefinition>
                    <nciodm:PreferredTerm>Axillary Artery</nciodm:PreferredTerm>
                </EnumeratedItem>
                <EnumeratedItem CodedValue="AXILLARY LYMPH NODE" nciodm:ExtCodeID="C12904">
                    <nciodm:CDISCSynonym>Axillary Lymph Node</nciodm:CDISCSynonym>
                    <nciodm:CDISCDefinition>One of approximately 20-30 lymph nodes in chain formation that traverse the concavity of the underarm to the clavicle. (NCI)</nciodm:CDISCDefinition>
                    <nciodm:PreferredTerm>Axillary Lymph Node</nciodm:PreferredTerm>
                </EnumeratedItem>
                <EnumeratedItem CodedValue="AXILLARY VEIN" nciodm:ExtCodeID="C32171">
                    <nciodm:CDISCDefinition>A large blood vessel which returns blood to the heart from the lateral thorax, axilla and upper limb. Each side of the body contains one axillary vein.</nciodm:CDISCDefinition>
                    <nciodm:PreferredTerm>Axillary Vein</nciodm:PreferredTerm>
                </EnumeratedItem>
                <EnumeratedItem CodedValue="BACK" nciodm:ExtCodeID="C13062">
                    <nciodm:CDISCSynonym>Back</nciodm:CDISCSynonym>
                    <nciodm:CDISCDefinition>The dorsal area between the base of the neck and the sacrum. (NCI)</nciodm:CDISCDefinition>
                    <nciodm:PreferredTerm>Back</nciodm:PreferredTerm>
                </EnumeratedItem>
                <EnumeratedItem CodedValue="BASAL GANGLIA" nciodm:ExtCodeID="C12447">
                    <nciodm:CDISCSynonym>Basal Ganglia</nciodm:CDISCSynonym>
                    <nciodm:CDISCDefinition>Clusters of neurons comprising the globus pallidus, putamen, caudate, nucleus accumbens, substantia nigra and subthalamic nucleus. They are involved with high level aspects of inhibitory motor activity in coordination with the excitation commands issued from the cerebellum. (NCI)</nciodm:CDISCDefinition>
                    <nciodm:PreferredTerm>Basal Ganglia</nciodm:PreferredTerm>
                </EnumeratedItem>
                <EnumeratedItem CodedValue="BASILIC VEIN" nciodm:ExtCodeID="C32197">
                    <nciodm:CDISCSynonym>Basilic Vein</nciodm:CDISCSynonym>
                    <nciodm:CDISCDefinition>One of the moderately large superficial veins of the forearm that transports blood from the hand and the medial aspect of the forearm to the axillary vein. (NCI)</nciodm:CDISCDefinition>
                    <nciodm:PreferredTerm>Basilic Vein</nciodm:PreferredTerm>
                </EnumeratedItem>
                <EnumeratedItem CodedValue="BILE DUCT" nciodm:ExtCodeID="C12376">
                    <nciodm:CDISCDefinition>Any of the ducts conveying bile between the liver and the intestine, including hepatic, cystic, and common bile duct.</nciodm:CDISCDefinition>
                    <nciodm:PreferredTerm>Bile Duct</nciodm:PreferredTerm>
                </EnumeratedItem>
                <EnumeratedItem CodedValue="BILIARY TRACT" nciodm:ExtCodeID="C12678">
                    <nciodm:CDISCSynonym>Biliary Tract</nciodm:CDISCSynonym>
                    <nciodm:CDISCDefinition>The duct system that transports bile from its origination by hepatocytes in the liver to the small intestine. It is comprised of the common bile duct that connects the liver and gall bladder to the small intestine and the cystic duct that connects the gall bladder to the common bile duct. (NCI)</nciodm:CDISCDefinition>
                    <nciodm:PreferredTerm>Biliary Tract</nciodm:PreferredTerm>
                </EnumeratedItem>
                <EnumeratedItem CodedValue="BLADDER" nciodm:ExtCodeID="C12414">
                    <nciodm:CDISCSynonym>Bladder</nciodm:CDISCSynonym>
                    <nciodm:CDISCDefinition>The distensible sac-like organ that functions as a reservoir of urine, collecting from the kidneys and eliminating via the urethra. (NCI)</nciodm:CDISCDefinition>
                    <nciodm:PreferredTerm>Bladder</nciodm:PreferredTerm>
                </EnumeratedItem>
                <EnumeratedItem CodedValue="BLADDER, DOME" nciodm:ExtCodeID="C12332">
                    <nciodm:CDISCSynonym>Dome of the Bladder</nciodm:CDISCSynonym>
                    <nciodm:CDISCDefinition>The upper, convex surface of the bladder. (NCI)</nciodm:CDISCDefinition>
                    <nciodm:PreferredTerm>Dome of the Bladder</nciodm:PreferredTerm>
                </EnumeratedItem>
                <EnumeratedItem CodedValue="BLADDER, FUNDUS" nciodm:ExtCodeID="C48939">
                    <nciodm:CDISCSynonym>Fundus of the Bladder</nciodm:CDISCSynonym>
                    <nciodm:CDISCDefinition>The portion of the bladder that is formed by the posterior wall and is located opposite to the bladder opening. (NCI)</nciodm:CDISCDefinition>
                    <nciodm:PreferredTerm>Bladder Fundus</nciodm:PreferredTerm>
                </EnumeratedItem>
                <EnumeratedItem CodedValue="BLADDER, NECK" nciodm:ExtCodeID="C12336">
                    <nciodm:CDISCSynonym>Neck of the Bladder</nciodm:CDISCSynonym>
                    <nciodm:CDISCDefinition>The inferior portion of the urinary bladder which is formed as the walls of the bladder converge and become contiguous with the proximal urethra. (NCI)</nciodm:CDISCDefinition>
                    <nciodm:PreferredTerm>Bladder Neck</nciodm:PreferredTerm>
                </EnumeratedItem>
                <EnumeratedItem CodedValue="BLADDER, TRIGONE" nciodm:ExtCodeID="C12331">
                    <nciodm:CDISCSynonym>Trigone of the Bladder</nciodm:CDISCSynonym>
                    <nciodm:CDISCDefinition>The triangular area in the bladder mucosa that is formed by the two ureteral orifices and the urethral orifice. (NCI)</nciodm:CDISCDefinition>
                    <nciodm:PreferredTerm>Bladder Trigone</nciodm:PreferredTerm>
                </EnumeratedItem>
                <EnumeratedItem CodedValue="BLOOD" nciodm:ExtCodeID="C12434">
                    <nciodm:CDISCSynonym>Blood</nciodm:CDISCSynonym>
                    <nciodm:CDISCSynonym>Peripheral Blood</nciodm:CDISCSynonym>
                    <nciodm:CDISCDefinition>A liquid tissue with the primary function of transporting oxygen and carbon dioxide. It supplies the tissues with nutrients, removes waste products, and contains various components of the immune system defending the body against infection.</nciodm:CDISCDefinition>
                    <nciodm:PreferredTerm>Blood</nciodm:PreferredTerm>
                </EnumeratedItem>
                <EnumeratedItem CodedValue="BLOOD VESSEL" nciodm:ExtCodeID="C12679">
                    <nciodm:CDISCSynonym>Blood Vessel</nciodm:CDISCSynonym>
                    <nciodm:CDISCDefinition>A tubular structure through which the blood circulates in the body. Blood vessels constitute a network composed of arteries, arterioles, capillaries, venules, and veins. (NCI)</nciodm:CDISCDefinition>
                    <nciodm:PreferredTerm>Blood Vessel</nciodm:PreferredTerm>
                </EnumeratedItem>
                <EnumeratedItem CodedValue="BODY" nciodm:ExtCodeID="C13041">
                    <nciodm:CDISCSynonym>Body</nciodm:CDISCSynonym>
                    <nciodm:CDISCDefinition>The entire physical structure of an organism. It is composed of anatomic systems, regions, cavities, and spaces. (NCI)</nciodm:CDISCDefinition>
                    <nciodm:PreferredTerm>Body</nciodm:PreferredTerm>
                </EnumeratedItem>
                <EnumeratedItem CodedValue="BODY OF STOMACH" nciodm:ExtCodeID="C12258">
                    <nciodm:CDISCSynonym>Body of Stomach</nciodm:CDISCSynonym>
                    <nciodm:CDISCDefinition>The main section of the digestive tube that connects the esophagus to the small intestine. The body proper excludes the upper and lower sections of the fundus and pyloric portion respectively. (NCI)</nciodm:CDISCDefinition>
                    <nciodm:PreferredTerm>Body of Stomach</nciodm:PreferredTerm>
                </EnumeratedItem>
                <EnumeratedItem CodedValue="BONE" nciodm:ExtCodeID="C12366">
                    <nciodm:CDISCSynonym>Bone</nciodm:CDISCSynonym>
                    <nciodm:CDISCDefinition>Calcified connective tissue that forms the skeletal components of the body. (NCI)</nciodm:CDISCDefinition>
                    <nciodm:PreferredTerm>Bone</nciodm:PreferredTerm>
                </EnumeratedItem>
                <EnumeratedItem CodedValue="BONE MARROW" nciodm:ExtCodeID="C12431">
                    <nciodm:CDISCSynonym>Bone Marrow</nciodm:CDISCSynonym>
                    <nciodm:CDISCDefinition>The tissue occupying the spaces of bone. It consists of blood vessel sinuses and a network of hematopoietic cells which give rise to the red cells, white cells, and megakaryocytes. (NCI)</nciodm:CDISCDefinition>
                    <nciodm:PreferredTerm>Bone Marrow</nciodm:PreferredTerm>
                </EnumeratedItem>
                <EnumeratedItem CodedValue="BRACHIAL ARTERY" nciodm:ExtCodeID="C12681">
                    <nciodm:CDISCSynonym>Brachial Artery</nciodm:CDISCSynonym>
                    <nciodm:CDISCDefinition>An artery originating at the axillary artery and branching into the radial and ulnar arteries. (NCI)</nciodm:CDISCDefinition>
                    <nciodm:PreferredTerm>Brachial Artery</nciodm:PreferredTerm>
                </EnumeratedItem>
                <EnumeratedItem CodedValue="BRACHIAL LYMPH NODE" nciodm:ExtCodeID="C92221">
                    <nciodm:CDISCDefinition>An axillary lymph node along the brachial vein. (NCI)</nciodm:CDISCDefinition>
                    <nciodm:PreferredTerm>Brachial Lymph Node</nciodm:PreferredTerm>
                </EnumeratedItem>
                <EnumeratedItem CodedValue="BRACHIAL PLEXUS" nciodm:ExtCodeID="C12682">
                    <nciodm:CDISCSynonym>Brachial Plexus</nciodm:CDISCSynonym>
                    <nciodm:CDISCDefinition>A nerve network originating from C5 to T1 that supplies cutaneous and muscular innervation to the arm and hand. (NCI)</nciodm:CDISCDefinition>
                    <nciodm:PreferredTerm>Brachial Plexus</nciodm:PreferredTerm>
                </EnumeratedItem>
                <EnumeratedItem CodedValue="BRAIN" nciodm:ExtCodeID="C12439">
                    <nciodm:CDISCSynonym>Brain</nciodm:CDISCSynonym>
                    <nciodm:CDISCSynonym>Nervous System, Brain</nciodm:CDISCSynonym>
                    <nciodm:CDISCDefinition>An organ composed of grey and white matter containing billions of neurons that is the center for intelligence and reasoning. It is protected by the bony cranium. (NCI)</nciodm:CDISCDefinition>
                    <nciodm:PreferredTerm>Brain</nciodm:PreferredTerm>
                </EnumeratedItem>
                <EnumeratedItem CodedValue="BRAIN STEM" nciodm:ExtCodeID="C12441">
                    <nciodm:CDISCSynonym>Brain Stem</nciodm:CDISCSynonym>
                    <nciodm:CDISCDefinition>The part of the brain that connects the cerebral hemispheres with the spinal cord. It consists of the mesencephalon, pons, and medulla oblongata. (NCI)</nciodm:CDISCDefinition>
                    <nciodm:PreferredTerm>Brain Stem</nciodm:PreferredTerm>
                </EnumeratedItem>
                <EnumeratedItem CodedValue="BRAIN VENTRICLE" nciodm:ExtCodeID="C12356">
                    <nciodm:CDISCSynonym>Brain Ventricle</nciodm:CDISCSynonym>
                    <nciodm:CDISCDefinition>The four connected cavities (hollow spaces) centrally located within the brain that connect posteriorly with the central canal of the spinal cord. (NCI)</nciodm:CDISCDefinition>
                    <nciodm:PreferredTerm>Brain Ventricle</nciodm:PreferredTerm>
                </EnumeratedItem>
                <EnumeratedItem CodedValue="BREAST" nciodm:ExtCodeID="C12971">
                    <nciodm:CDISCSynonym>Breast</nciodm:CDISCSynonym>
                    <nciodm:CDISCDefinition>One of two hemispheric projections of variable size situated in the subcutaneous layer over the pectoralis major muscle on either side of the chest. (NCI)</nciodm:CDISCDefinition>
                    <nciodm:PreferredTerm>Breast</nciodm:PreferredTerm>
                </EnumeratedItem>
                <EnumeratedItem CodedValue="BRONCHUS" nciodm:ExtCodeID="C12683">
                    <nciodm:CDISCSynonym>Bronchi</nciodm:CDISCSynonym>
                    <nciodm:CDISCSynonym>Bronchus</nciodm:CDISCSynonym>
                    <nciodm:CDISCDefinition>Tubular structure in continuation with the trachea, serving as air passage. It terminates in the lung (terminal bronchiole). (NCI)</nciodm:CDISCDefinition>
                    <nciodm:PreferredTerm>Bronchus</nciodm:PreferredTerm>
                </EnumeratedItem>
                <EnumeratedItem CodedValue="BUTTOCK" nciodm:ExtCodeID="C89806">
                    <nciodm:CDISCSynonym>Buttock</nciodm:CDISCSynonym>
                    <nciodm:CDISCDefinition>Either of the fleshy mounds in the rear pelvic area of the human body formed by the gluteal muscles.</nciodm:CDISCDefinition>
                    <nciodm:PreferredTerm>Buttock</nciodm:PreferredTerm>
                </EnumeratedItem>
                <EnumeratedItem CodedValue="C1 VERTEBRA" nciodm:ExtCodeID="C32239">
                    <nciodm:CDISCSynonym>C1 Vertebra</nciodm:CDISCSynonym>
                    <nciodm:CDISCDefinition>The first of the seven cervical vertebrae. (NCI)</nciodm:CDISCDefinition>
                    <nciodm:PreferredTerm>C1 Vertebra</nciodm:PreferredTerm>
                </EnumeratedItem>
                <EnumeratedItem CodedValue="C2 VERTEBRA" nciodm:ExtCodeID="C32240">
                    <nciodm:CDISCSynonym>C2 Vertebra</nciodm:CDISCSynonym>
                    <nciodm:CDISCDefinition>The second of the seven cervical vertebrae. (NCI)</nciodm:CDISCDefinition>
                    <nciodm:PreferredTerm>C2 Vertebra</nciodm:PreferredTerm>
                </EnumeratedItem>
                <EnumeratedItem CodedValue="C3 VERTEBRA" nciodm:ExtCodeID="C32241">
                    <nciodm:CDISCSynonym>C3 Vertebra</nciodm:CDISCSynonym>
                    <nciodm:CDISCDefinition>The third of the seven cervical vertebrae. (NCI)</nciodm:CDISCDefinition>
                    <nciodm:PreferredTerm>C3 Vertebra</nciodm:PreferredTerm>
                </EnumeratedItem>
                <EnumeratedItem CodedValue="C4 VERTEBRA" nciodm:ExtCodeID="C32242">
                    <nciodm:CDISCSynonym>C4 Vertebra</nciodm:CDISCSynonym>
                    <nciodm:CDISCDefinition>The fourth of the seven cervical vertebrae. (NCI)</nciodm:CDISCDefinition>
                    <nciodm:PreferredTerm>C4 Vertebra</nciodm:PreferredTerm>
                </EnumeratedItem>
                <EnumeratedItem CodedValue="C5 VERTEBRA" nciodm:ExtCodeID="C32243">
                    <nciodm:CDISCSynonym>C5 Vertebra</nciodm:CDISCSynonym>
                    <nciodm:CDISCDefinition>The fifth of the seven cervical vertebrae. (NCI)</nciodm:CDISCDefinition>
                    <nciodm:PreferredTerm>C5 Vertebra</nciodm:PreferredTerm>
                </EnumeratedItem>
                <EnumeratedItem CodedValue="C6 VERTEBRA" nciodm:ExtCodeID="C32244">
                    <nciodm:CDISCSynonym>C6 Vertebra</nciodm:CDISCSynonym>
                    <nciodm:CDISCDefinition>The sixth of the seven cervical vertebrae. (NCI)</nciodm:CDISCDefinition>
                    <nciodm:PreferredTerm>C6 Vertebra</nciodm:PreferredTerm>
                </EnumeratedItem>
                <EnumeratedItem CodedValue="C7 VERTEBRA" nciodm:ExtCodeID="C32245">
                    <nciodm:CDISCSynonym>C7 Vertebra</nciodm:CDISCSynonym>
                    <nciodm:CDISCDefinition>The seventh of the seven cervical vertebrae. (NCI)</nciodm:CDISCDefinition>
                    <nciodm:PreferredTerm>C7 Vertebra</nciodm:PreferredTerm>
                </EnumeratedItem>
                <EnumeratedItem CodedValue="CALCARINE SULCUS" nciodm:ExtCodeID="C32252">
                    <nciodm:CDISCDefinition>A cerebral fissure that originates near the occipital lobe and terminates below the corpus callosum. (NCI)</nciodm:CDISCDefinition>
                    <nciodm:PreferredTerm>Calcarine Sulcus</nciodm:PreferredTerm>
                </EnumeratedItem>
                <EnumeratedItem CodedValue="CANINE TOOTH" nciodm:ExtCodeID="C32258">
                    <nciodm:CDISCSynonym>Canine Tooth</nciodm:CDISCSynonym>
                    <nciodm:CDISCDefinition>A single-cusped (pointed) and usually single-rooted tooth located between the incisors and premolars. (NCI)</nciodm:CDISCDefinition>
                    <nciodm:PreferredTerm>Canine Tooth</nciodm:PreferredTerm>
                </EnumeratedItem>
                <EnumeratedItem CodedValue="CAPITATE BONE" nciodm:ExtCodeID="C12856">
                    <nciodm:CDISCSynonym>Capitate Bone</nciodm:CDISCSynonym>
                    <nciodm:CDISCDefinition>The largest of eight carpal bones, located in the center of the hand. (NCI)</nciodm:CDISCDefinition>
                    <nciodm:PreferredTerm>Capitate Bone</nciodm:PreferredTerm>
                </EnumeratedItem>
                <EnumeratedItem CodedValue="CAROTID ARTERY" nciodm:ExtCodeID="C12687">
                    <nciodm:CDISCSynonym>Carotid Artery</nciodm:CDISCSynonym>
                    <nciodm:CDISCDefinition>One of two arteries that supply oxygenated blood to the head and neck; the left common carotid branches from the aorta and the right common carotid from the innominate (brachiocephalic artery). (NCI)</nciodm:CDISCDefinition>
                    <nciodm:PreferredTerm>Carotid Artery</nciodm:PreferredTerm>
                </EnumeratedItem>
                <EnumeratedItem CodedValue="CARPOMETACARPAL JOINT 1" nciodm:ExtCodeID="C103912">
                    <nciodm:CDISCSynonym>CMC1</nciodm:CDISCSynonym>
                    <nciodm:CDISCDefinition>A saddle-shaped synovial joint between the metacarpal of the thumb and the trapezium. (NCI)</nciodm:CDISCDefinition>
                    <nciodm:PreferredTerm>Carpometacarpal Joint 1</nciodm:PreferredTerm>
                </EnumeratedItem>
                <EnumeratedItem CodedValue="CARPOMETACARPAL JOINT 2" nciodm:ExtCodeID="C103913">
                    <nciodm:CDISCSynonym>CMC2</nciodm:CDISCSynonym>
                    <nciodm:CDISCDefinition>A plane joint primarily between the second metacarpal and the trapezoid, which also connects with the trapezium and capitate. (NCI)</nciodm:CDISCDefinition>
                    <nciodm:PreferredTerm>Carpometacarpal Joint 2</nciodm:PreferredTerm>
                </EnumeratedItem>
                <EnumeratedItem CodedValue="CARPOMETACARPAL JOINT 3" nciodm:ExtCodeID="C103914">
                    <nciodm:CDISCSynonym>CMC3</nciodm:CDISCSynonym>
                    <nciodm:CDISCDefinition>A plane joint between the third metacarpal and the capitate. (NCI)</nciodm:CDISCDefinition>
                    <nciodm:PreferredTerm>Carpometacarpal Joint 3</nciodm:PreferredTerm>
                </EnumeratedItem>
                <EnumeratedItem CodedValue="CARPOMETACARPAL JOINT 4" nciodm:ExtCodeID="C103915">
                    <nciodm:CDISCSynonym>CMC4</nciodm:CDISCSynonym>
                    <nciodm:CDISCDefinition>A plane joint between the fourth metacarpal and the hamate. (NCI)</nciodm:CDISCDefinition>
                    <nciodm:PreferredTerm>Carpometacarpal Joint 4</nciodm:PreferredTerm>
                </EnumeratedItem>
                <EnumeratedItem CodedValue="CARPOMETACARPAL JOINT 5" nciodm:ExtCodeID="C103916">
                    <nciodm:CDISCSynonym>CMC5</nciodm:CDISCSynonym>
                    <nciodm:CDISCDefinition>A plane joint between the fifth metacarpal and the pisiform. (NCI)</nciodm:CDISCDefinition>
                    <nciodm:PreferredTerm>Carpometacarpal Joint 5</nciodm:PreferredTerm>
                </EnumeratedItem>
                <EnumeratedItem CodedValue="CAUDATE NUCLEUS" nciodm:ExtCodeID="C12451">
                    <nciodm:CDISCDefinition>An elongated gray mass of the neostriatum located adjacent to the lateral ventricle of the brain. (MeSH)</nciodm:CDISCDefinition>
                    <nciodm:PreferredTerm>Caudate Nucleus</nciodm:PreferredTerm>
                </EnumeratedItem>
                <EnumeratedItem CodedValue="CECUM" nciodm:ExtCodeID="C12381">
                    <nciodm:CDISCSynonym>Cecal</nciodm:CDISCSynonym>
                    <nciodm:CDISCSynonym>Cecum</nciodm:CDISCSynonym>
                    <nciodm:CDISCDefinition>A blind pouch-like commencement of the colon in the right lower quadrant of the abdomen at the end of the small intestine and the start of the large intestine. (OMD)</nciodm:CDISCDefinition>
                    <nciodm:PreferredTerm>Cecum</nciodm:PreferredTerm>
                </EnumeratedItem>
                <EnumeratedItem CodedValue="CELIAC LYMPH NODE" nciodm:ExtCodeID="C65166">
                    <nciodm:CDISCSynonym>Celiac Axis Lymph Node</nciodm:CDISCSynonym>
                    <nciodm:CDISCSynonym>Celiac Lymph Node</nciodm:CDISCSynonym>
                    <nciodm:CDISCDefinition>A lymph node at the base of the celiac artery. (NCI)</nciodm:CDISCDefinition>
                    <nciodm:PreferredTerm>Celiac Lymph Node</nciodm:PreferredTerm>
                </EnumeratedItem>
                <EnumeratedItem CodedValue="CENTRAL NERVOUS SYSTEM" nciodm:ExtCodeID="C12438">
                    <nciodm:CDISCDefinition>The part of the nervous system that consists of the brain, spinal cord, and meninges. (NCI)</nciodm:CDISCDefinition>
                    <nciodm:PreferredTerm>Central Nervous System</nciodm:PreferredTerm>
                </EnumeratedItem>
                <EnumeratedItem CodedValue="CEPHALIC VEIN" nciodm:ExtCodeID="C32286">
                    <nciodm:CDISCSynonym>Cephalic Vein</nciodm:CDISCSynonym>
                    <nciodm:CDISCSynonym>Vena Cephalica</nciodm:CDISCSynonym>
                    <nciodm:CDISCDefinition>One of five superficial veins of the upper extremity, beginning at the radial aspect of the wrist area, wrapping around the forearm and emptying into the axillary vein. (NCI)</nciodm:CDISCDefinition>
                    <nciodm:PreferredTerm>Cephalic Vein</nciodm:PreferredTerm>
                </EnumeratedItem>
                <EnumeratedItem CodedValue="CEREBELLUM" nciodm:ExtCodeID="C12445">
                    <nciodm:CDISCDefinition>The portion of the brain located at the base of the skull that is responsible for balance, equilibrium and movement. (NCI)</nciodm:CDISCDefinition>
                    <nciodm:PreferredTerm>Cerebellum</nciodm:PreferredTerm>
                </EnumeratedItem>
                <EnumeratedItem CodedValue="CEREBRAL CORTEX" nciodm:ExtCodeID="C12443">
                    <nciodm:CDISCSynonym>Cerebral Cortex</nciodm:CDISCSynonym>
                    <nciodm:CDISCDefinition>The outer layer of the cerebrum composed of neurons and unmyelinated nerve fibers. It is responsible for memory, attention, consciousness and other higher levels of mental function.</nciodm:CDISCDefinition>
                    <nciodm:PreferredTerm>Cerebral Cortex</nciodm:PreferredTerm>
                </EnumeratedItem>
                <EnumeratedItem CodedValue="CEREBRAL HEMISPHERE, LEFT" nciodm:ExtCodeID="C32955">
                    <nciodm:CDISCDefinition>The left half of the cerebrum.</nciodm:CDISCDefinition>
                    <nciodm:PreferredTerm>Left Cerebral Hemisphere</nciodm:PreferredTerm>
                </EnumeratedItem>
                <EnumeratedItem CodedValue="CEREBRAL HEMISPHERE, RIGHT" nciodm:ExtCodeID="C33472">
                    <nciodm:CDISCDefinition>The right half of the cerebrum.</nciodm:CDISCDefinition>
                    <nciodm:PreferredTerm>Right Cerebral Hemisphere</nciodm:PreferredTerm>
                </EnumeratedItem>
                <EnumeratedItem CodedValue="CEREBRAL SUBCORTEX" nciodm:ExtCodeID="C98712">
                    <nciodm:CDISCSynonym>Cerebral Subcortex</nciodm:CDISCSynonym>
                    <nciodm:CDISCDefinition>The layer located below the cerebral cortex that includes the forebrain, midbrain and hindbrain. (NCI)</nciodm:CDISCDefinition>
                    <nciodm:PreferredTerm>Cerebral Subcortex</nciodm:PreferredTerm>
                </EnumeratedItem>
                <EnumeratedItem CodedValue="CEREBRUM" nciodm:ExtCodeID="C12351">
                    <nciodm:CDISCSynonym>Cerebral Hemisphere</nciodm:CDISCSynonym>
                    <nciodm:CDISCDefinition>One half of the cerebrum, the part of the brain that controls muscle functions and also controls speech, thought, emotions, reading, writing, and learning. The right hemisphere controls the muscles on the left side of the body, and the left hemisphere controls the muscles on the right side of the body. (NCI)</nciodm:CDISCDefinition>
                    <nciodm:PreferredTerm>Cerebral Hemisphere</nciodm:PreferredTerm>
                </EnumeratedItem>
                <EnumeratedItem CodedValue="CERVICAL LYMPH NODE" nciodm:ExtCodeID="C32298">
                    <nciodm:CDISCSynonym>Cervical Lymph Node</nciodm:CDISCSynonym>
                    <nciodm:CDISCDefinition>Any of the lymph nodes located in the neck. (NCI)</nciodm:CDISCDefinition>
                    <nciodm:PreferredTerm>Cervical Lymph Node</nciodm:PreferredTerm>
                </EnumeratedItem>
                <EnumeratedItem CodedValue="CERVICAL VERTEBRA" nciodm:ExtCodeID="C12693">
                    <nciodm:CDISCSynonym>Cervical Vertebra</nciodm:CDISCSynonym>
                    <nciodm:CDISCDefinition>Any one of the seven vertebrae that start with C1, connecting the skull to the spine, and ends with C7, which joins the cervical with the thoracic spine. (NCI)</nciodm:CDISCDefinition>
                    <nciodm:PreferredTerm>Cervical Vertebra</nciodm:PreferredTerm>
                </EnumeratedItem>
                <EnumeratedItem CodedValue="CERVIX UTERI" nciodm:ExtCodeID="C12311">
                    <nciodm:CDISCSynonym>Cervix Uteri</nciodm:CDISCSynonym>
                    <nciodm:CDISCSynonym>Uterine Cervix</nciodm:CDISCSynonym>
                    <nciodm:CDISCDefinition>The lower part of the uterus occupying the region between the isthmus of the uterus and the vagina. It is divided into supravaginal and vaginal portions. (NCI)</nciodm:CDISCDefinition>
                    <nciodm:PreferredTerm>Cervix Uteri</nciodm:PreferredTerm>
                </EnumeratedItem>
                <EnumeratedItem CodedValue="CHEEK" nciodm:ExtCodeID="C13070">
                    <nciodm:CDISCDefinition>The fleshy part of the face bounded by the eyes, nose, ear, and jaw line. (NCI)</nciodm:CDISCDefinition>
                    <nciodm:PreferredTerm>Cheek</nciodm:PreferredTerm>
                </EnumeratedItem>
                <EnumeratedItem CodedValue="CHEST" nciodm:ExtCodeID="C25389">
                    <nciodm:CDISCSynonym>Chest</nciodm:CDISCSynonym>
                    <nciodm:CDISCDefinition>The anterior side of the thorax from the neck to the abdomen. The shape of the chest is often regarded as potential insight into a disease process, as in the case of barrel chest and respiratory dysfunction. (NCI)</nciodm:CDISCDefinition>
                    <nciodm:PreferredTerm>Chest</nciodm:PreferredTerm>
                </EnumeratedItem>
                <EnumeratedItem CodedValue="CHEST WALL" nciodm:ExtCodeID="C62484">
                    <nciodm:CDISCSynonym>Chest Wall</nciodm:CDISCSynonym>
                    <nciodm:CDISCDefinition>The total system of structures outside the lungs that move as a part of breathing; it includes all structures from the skin to the parietal pleura. (NCI)</nciodm:CDISCDefinition>
                    <nciodm:PreferredTerm>Chest Wall</nciodm:PreferredTerm>
                </EnumeratedItem>
                <EnumeratedItem CodedValue="CHOROID PLEXUS" nciodm:ExtCodeID="C12694">
                    <nciodm:CDISCSynonym>Choroid Plexus</nciodm:CDISCSynonym>
                    <nciodm:CDISCDefinition>Blood vessels forming villous structures in the third, fourth, and lateral ventricles of the brain. (NCI)</nciodm:CDISCDefinition>
                    <nciodm:PreferredTerm>Choroid Plexus</nciodm:PreferredTerm>
                </EnumeratedItem>
                <EnumeratedItem CodedValue="CINGULATE CORTEX" nciodm:ExtCodeID="C52713">
                    <nciodm:CDISCDefinition>Part of the medial aspect of the cerebral cortex. (NCI)</nciodm:CDISCDefinition>
                    <nciodm:PreferredTerm>Cingulate Cortex</nciodm:PreferredTerm>
                </EnumeratedItem>
                <EnumeratedItem CodedValue="CIRCUMFLEX ARTERY AV GROOVE CONTINUATION ARTERY" nciodm:ExtCodeID="C102287">
                    <nciodm:CDISCSynonym>CIRC AV</nciodm:CDISCSynonym>
                    <nciodm:CDISCSynonym>CIRCUMFLEX ARTERY AV GROOVE CONTINUATION ARTERY SEGMENT</nciodm:CDISCSynonym>
                    <nciodm:CDISCDefinition>The segment of the left circumflex artery that is distal to the third marginal branch, located in the atrioventricular groove.</nciodm:CDISCDefinition>
                    <nciodm:PreferredTerm>Circumflex Artery AV Groove Continuation Artery</nciodm:PreferredTerm>
                </EnumeratedItem>
                <EnumeratedItem CodedValue="CIRCUMFLEX, OBTUSE MARGINALS, LEFT POSTEROLETERAL AND LEFT POSTERIOR DESCENDING ARTERY BRANCHES" nciodm:ExtCodeID="C102286">
                    <nciodm:CDISCDefinition>The left circumflex coronary artery and all of its branches.</nciodm:CDISCDefinition>
                    <nciodm:PreferredTerm>Circumflex Artery and its Branches</nciodm:PreferredTerm>
                </EnumeratedItem>
                <EnumeratedItem CodedValue="CLAVICLE" nciodm:ExtCodeID="C12695">
                    <nciodm:CDISCSynonym>Clavicle</nciodm:CDISCSynonym>
                    <nciodm:CDISCDefinition>One of a pair of bones linking the scapula and the sternum. The clavicle is part of the pectoral girdle. (NCI)</nciodm:CDISCDefinition>
                    <nciodm:PreferredTerm>Clavicle</nciodm:PreferredTerm>
                </EnumeratedItem>
                <EnumeratedItem CodedValue="CLITORIS" nciodm:ExtCodeID="C12308">
                    <nciodm:CDISCDefinition>The erectile tissue in the vulva. It is composed of the corpora cavernosa and the glans clitoris.</nciodm:CDISCDefinition>
                    <nciodm:PreferredTerm>Clitoris</nciodm:PreferredTerm>
                </EnumeratedItem>
                <EnumeratedItem CodedValue="COCCYGEAL VERTEBRA" nciodm:ExtCodeID="C32334">
                    <nciodm:CDISCSynonym>Coccygeal Vertebra</nciodm:CDISCSynonym>
                    <nciodm:CDISCDefinition>Four vertebral segments positioned at the base of the spine that are fused. (NCI)</nciodm:CDISCDefinition>
                    <nciodm:PreferredTerm>Coccygeal Vertebra</nciodm:PreferredTerm>
                </EnumeratedItem>
                <EnumeratedItem CodedValue="COCCYX" nciodm:ExtCodeID="C12696">
                    <nciodm:CDISCSynonym>Coccyx</nciodm:CDISCSynonym>
                    <nciodm:CDISCDefinition>A small bone located at the bottom of the spine. The coccyx is a result of 3-5 fused rudimentary vertebrae. (NCI)</nciodm:CDISCDefinition>
                    <nciodm:PreferredTerm>Coccyx</nciodm:PreferredTerm>
                </EnumeratedItem>
                <EnumeratedItem CodedValue="COLON" nciodm:ExtCodeID="C12382">
                    <nciodm:CDISCSynonym>Colon</nciodm:CDISCSynonym>
                    <nciodm:CDISCDefinition>The part of the large intestine measured from the cecum to the rectum consisting of ascending, transverse, descending and sigmoid portions. The purpose of the colon is to remove water from digested food prior to excretion. (NCI)</nciodm:CDISCDefinition>
                    <nciodm:PreferredTerm>Colon</nciodm:PreferredTerm>
                </EnumeratedItem>
                <EnumeratedItem CodedValue="COLON, ASCENDING" nciodm:ExtCodeID="C12265">
                    <nciodm:CDISCSynonym>Ascending Colon</nciodm:CDISCSynonym>
                    <nciodm:CDISCDefinition>The first part of the colon (large intestine) that starts in the right lower quadrant of the abdomen and ends at the transverse colon in the right upper quadrant of the abdomen. (NCI)</nciodm:CDISCDefinition>
                    <nciodm:PreferredTerm>Ascending Colon</nciodm:PreferredTerm>
                </EnumeratedItem>
                <EnumeratedItem CodedValue="COLON, DESCENDING" nciodm:ExtCodeID="C12268">
                    <nciodm:CDISCSynonym>Descending Colon</nciodm:CDISCSynonym>
                    <nciodm:CDISCDefinition>The fourth portion of the large intestine (colon) that communicates with the transverse colon in the left-upper quadrant of the abdomen and the rectum below. (NCI)</nciodm:CDISCDefinition>
                    <nciodm:PreferredTerm>Descending Colon</nciodm:PreferredTerm>
                </EnumeratedItem>
                <EnumeratedItem CodedValue="COLON, LEFT" nciodm:ExtCodeID="C33929">
                    <nciodm:CDISCSynonym>Left Colon</nciodm:CDISCSynonym>
                    <nciodm:CDISCDefinition>The portion of the large intestine that includes the descending and sigmoid colon. (NCI)</nciodm:CDISCDefinition>
                    <nciodm:PreferredTerm>Left Colon</nciodm:PreferredTerm>
                </EnumeratedItem>
                <EnumeratedItem CodedValue="COLON, RECTOSIGMOID" nciodm:ExtCodeID="C103438">
                    <nciodm:CDISCDefinition>A portion of the large intestine that includes the descending colon, sigmoid colon and rectum.</nciodm:CDISCDefinition>
                    <nciodm:PreferredTerm>Rectosigmoid Colon</nciodm:PreferredTerm>
                </EnumeratedItem>
                <EnumeratedItem CodedValue="COLON, RIGHT" nciodm:ExtCodeID="C12383">
                    <nciodm:CDISCSynonym>Right Colon</nciodm:CDISCSynonym>
                    <nciodm:CDISCDefinition>The proximal segment of the large intestine that is located in the right side of the abdominal cavity. It includes the cecum (with the attached appendix) and the ascending colon. (NCI)</nciodm:CDISCDefinition>
                    <nciodm:PreferredTerm>Right Colon</nciodm:PreferredTerm>
                </EnumeratedItem>
                <EnumeratedItem CodedValue="COLON, SIGMOID" nciodm:ExtCodeID="C12384">
                    <nciodm:CDISCSynonym>Sigmoid Colon</nciodm:CDISCSynonym>
                    <nciodm:CDISCDefinition>The portion of the colon that connects to the descending colon above and the rectum below. (NCI)</nciodm:CDISCDefinition>
                    <nciodm:PreferredTerm>Sigmoid Colon</nciodm:PreferredTerm>
                </EnumeratedItem>
                <EnumeratedItem CodedValue="COLON, TRANSVERSE" nciodm:ExtCodeID="C12385">
                    <nciodm:CDISCSynonym>Transverse Colon</nciodm:CDISCSynonym>
                    <nciodm:CDISCDefinition>The third division of the colon (large intestine). It communicates with the ascending colon in the upper right-hand quadrant of the abdomen and the descending colon in the upper left-hand quadrant. (NCI)</nciodm:CDISCDefinition>
                    <nciodm:PreferredTerm>Transverse Colon</nciodm:PreferredTerm>
                </EnumeratedItem>
                <EnumeratedItem CodedValue="COMMON FEMORAL ARTERY" nciodm:ExtCodeID="C32354">
                    <nciodm:CDISCDefinition>An artery arising from the external iliac artery at the inguinal ligament which bifurcates forming the deep and superficial femoral arteries.</nciodm:CDISCDefinition>
                    <nciodm:PreferredTerm>Common Femoral Artery</nciodm:PreferredTerm>
                </EnumeratedItem>
                <EnumeratedItem CodedValue="COMMON ILIAC ARTERY" nciodm:ExtCodeID="C32357">
                    <nciodm:CDISCDefinition>An artery arising from the bifurcation of the abdominal aorta which then bifurcates forming the internal and external iliac arteries.</nciodm:CDISCDefinition>
                    <nciodm:PreferredTerm>Common Iliac Artery</nciodm:PreferredTerm>
                </EnumeratedItem>
                <EnumeratedItem CodedValue="COMMON ILIAC LYMPH NODE" nciodm:ExtCodeID="C103384">
                    <nciodm:CDISCDefinition>A lymph node located adjacent to the common iliac artery. (NCI)</nciodm:CDISCDefinition>
                    <nciodm:PreferredTerm>Common Iliac Lymph Node</nciodm:PreferredTerm>
                </EnumeratedItem>
                <EnumeratedItem CodedValue="CONJUNCTIVA" nciodm:ExtCodeID="C12341">
                    <nciodm:CDISCSynonym>Conjunctiva</nciodm:CDISCSynonym>
                    <nciodm:CDISCDefinition>A thin, transparent tissue divided into the palpebral conjunctiva (covering the inner side of the eye lid) and the bulbar conjunctiva (covering the eyeball). (NCI)</nciodm:CDISCDefinition>
                    <nciodm:PreferredTerm>Conjunctiva</nciodm:PreferredTerm>
                </EnumeratedItem>
                <EnumeratedItem CodedValue="CORNEA" nciodm:ExtCodeID="C12342">
                    <nciodm:CDISCSynonym>Cornea</nciodm:CDISCSynonym>
                    <nciodm:CDISCDefinition>A dome-shaped, transparent, avascular tissue covering the front of the eye. It is composed of five layers: squamous epithelium, Bowman's membrane, stroma, Descemet's membrane, and endothelium. Refraction of light contributing to eye's focusing ability is its characteristic function. It contains unmyelinated nerve endings which are responsible for the high sensitivity of the tissue. (NCI)</nciodm:CDISCDefinition>
                    <nciodm:PreferredTerm>Cornea</nciodm:PreferredTerm>
                </EnumeratedItem>
                <EnumeratedItem CodedValue="CORONARY ARTERY" nciodm:ExtCodeID="C12843">
                    <nciodm:CDISCSynonym>Coronary Artery</nciodm:CDISCSynonym>
                    <nciodm:CDISCDefinition>A principal artery that originates in the aorta. It supplies blood to the muscular tissue of the heart. (NCI)</nciodm:CDISCDefinition>
                    <nciodm:PreferredTerm>Coronary Artery</nciodm:PreferredTerm>
                </EnumeratedItem>
                <EnumeratedItem CodedValue="CORONARY ARTERY, ANTERIOR DESCENDING" nciodm:ExtCodeID="C32089">
                    <nciodm:CDISCSynonym>Anterior Descending Coronary Artery</nciodm:CDISCSynonym>
                    <nciodm:CDISCSynonym>Left Anterior Descending Coronary Artery</nciodm:CDISCSynonym>
                    <nciodm:CDISCDefinition>A left coronary artery branch that descends on the anterior portion of the heart through the anterior interventricular groove. (NCI)</nciodm:CDISCDefinition>
                    <nciodm:PreferredTerm>Anterior Descending Coronary Artery</nciodm:PreferredTerm>
                </EnumeratedItem>
                <EnumeratedItem CodedValue="CORONARY ARTERY, LEFT" nciodm:ExtCodeID="C12872">
                    <nciodm:CDISCSynonym>LM</nciodm:CDISCSynonym>
                    <nciodm:CDISCSynonym>Left Coronary Artery</nciodm:CDISCSynonym>
                    <nciodm:CDISCSynonym>Left Main Coronary Artery</nciodm:CDISCSynonym>
                    <nciodm:CDISCSynonym>Left Main Coronary Artery Segment</nciodm:CDISCSynonym>
                    <nciodm:CDISCDefinition>A coronary artery that arises from the aorta and bifurcates into the left anterior descending artery and the left circumflex artery. (NCI)</nciodm:CDISCDefinition>
                    <nciodm:PreferredTerm>Left Coronary Artery</nciodm:PreferredTerm>
                </EnumeratedItem>
                <EnumeratedItem CodedValue="CORONARY ARTERY, RIGHT" nciodm:ExtCodeID="C12875">
                    <nciodm:CDISCSynonym>Right Coronary Artery</nciodm:CDISCSynonym>
                    <nciodm:CDISCDefinition>A coronary artery that originates above the right coronary cusp and supplies blood predominantly to the right side of the heart. (NCI)</nciodm:CDISCDefinition>
                    <nciodm:PreferredTerm>Right Coronary Artery</nciodm:PreferredTerm>
                </EnumeratedItem>
                <EnumeratedItem CodedValue="CORONARY SINUS" nciodm:ExtCodeID="C32378">
                    <nciodm:CDISCDefinition>The coronary vein that terminates in the right atrium and transports deoxygenated blood from the coronary circulation.</nciodm:CDISCDefinition>
                    <nciodm:PreferredTerm>Coronary Sinus</nciodm:PreferredTerm>
                </EnumeratedItem>
                <EnumeratedItem CodedValue="CORONARY VEIN" nciodm:ExtCodeID="C12882">
                    <nciodm:CDISCDefinition>A blood vessel in the heart which returns coronary blood to the right atrium.</nciodm:CDISCDefinition>
                    <nciodm:PreferredTerm>Coronary Vein</nciodm:PreferredTerm>
                </EnumeratedItem>
                <EnumeratedItem CodedValue="CORPUS CALLOSUM" nciodm:ExtCodeID="C12446">
                    <nciodm:CDISCDefinition>A white matter structure within the cleft that separates the left and right cerebral hemispheres in the mammalian brain. It is composed of a wide, flat bundle of 200-250 million axonal projections. (NCI)</nciodm:CDISCDefinition>
                    <nciodm:PreferredTerm>Corpus Callosum</nciodm:PreferredTerm>
                </EnumeratedItem>
                <EnumeratedItem CodedValue="CORPUS LUTEUM" nciodm:ExtCodeID="C26465">
                    <nciodm:CDISCSynonym>Corpus Luteum</nciodm:CDISCSynonym>
                    <nciodm:CDISCDefinition>A group of cells that remain of the Graafian follicle following ovulation. This structure is composed of endocrine tissue and produces progesterone. This is needed to prepare the uterine lining for implantation by the fertilized egg. (NCI)</nciodm:CDISCDefinition>
                    <nciodm:PreferredTerm>Corpus Luteum</nciodm:PreferredTerm>
                </EnumeratedItem>
                <EnumeratedItem CodedValue="CORPUS STRIATUM" nciodm:ExtCodeID="C12448">
                    <nciodm:CDISCDefinition>The portion of the brain consisting of the neostriatum and globus pallidus.</nciodm:CDISCDefinition>
                    <nciodm:PreferredTerm>Corpus Striatum</nciodm:PreferredTerm>
                </EnumeratedItem>
                <EnumeratedItem CodedValue="COSTAL CARTILAGE" nciodm:ExtCodeID="C32391">
                    <nciodm:CDISCSynonym>Costal Cartilage</nciodm:CDISCSynonym>
                    <nciodm:CDISCDefinition>The cartilage positioned between the anterior end of the rib and the sternum. Its elasticity allows the ribcage to expand while breathing. (NCI)</nciodm:CDISCDefinition>
                    <nciodm:PreferredTerm>Costal Cartilage</nciodm:PreferredTerm>
                </EnumeratedItem>
                <EnumeratedItem CodedValue="COSTOCHONDRAL JOINT 1" nciodm:ExtCodeID="C102288">
                    <nciodm:CDISCDefinition>The first hyaline cartilaginous joint between the ribs and costal cartilage.</nciodm:CDISCDefinition>
                    <nciodm:PreferredTerm>Costochondral Joint 1</nciodm:PreferredTerm>
                </EnumeratedItem>
                <EnumeratedItem CodedValue="COSTOCHONDRAL JOINT 7" nciodm:ExtCodeID="C102289">
                    <nciodm:CDISCDefinition>The seventh hyaline cartilaginous joint between the ribs and costal cartilage.</nciodm:CDISCDefinition>
                    <nciodm:PreferredTerm>Costochondral Joint 7</nciodm:PreferredTerm>
                </EnumeratedItem>
                <EnumeratedItem CodedValue="CRANIAL NERVE" nciodm:ExtCodeID="C12700">
                    <nciodm:CDISCDefinition>Any of the 12 paired nerves that originate in the brain stem. (NCI)</nciodm:CDISCDefinition>
                    <nciodm:PreferredTerm>Cranial Nerve</nciodm:PreferredTerm>
                </EnumeratedItem>
                <EnumeratedItem CodedValue="CUBOID BONE" nciodm:ExtCodeID="C32414">
                    <nciodm:CDISCSynonym>Cuboid Bone</nciodm:CDISCSynonym>
                    <nciodm:CDISCDefinition>A bone on the lateral side of the tarsus between the calcaneus and the fourth and fifth metatarsal bones. (NCI)</nciodm:CDISCDefinition>
                    <nciodm:PreferredTerm>Cuboid Bone</nciodm:PreferredTerm>
                </EnumeratedItem>
                <EnumeratedItem CodedValue="DIAPHRAGM" nciodm:ExtCodeID="C12702">
                    <nciodm:CDISCDefinition>Fibromuscular tissue that separates the thoracic from the abdominal cavity. It increases the volume of the thoracic cavity through contractions, thus facilitating respiration.</nciodm:CDISCDefinition>
                    <nciodm:PreferredTerm>Diaphragm</nciodm:PreferredTerm>
                </EnumeratedItem>
                <EnumeratedItem CodedValue="DISTAL CIRCUMFLEX ARTERY" nciodm:ExtCodeID="C102290">
                    <nciodm:CDISCSynonym>DCIRC</nciodm:CDISCSynonym>
                    <nciodm:CDISCSynonym>DISTAL CIRCUMFLEX ARTERY SEGMENT</nciodm:CDISCSynonym>
                    <nciodm:CDISCDefinition>The segment of the left circumflex artery that is between the second and third obtuse marginal branches.</nciodm:CDISCDefinition>
                    <nciodm:PreferredTerm>Distal Circumflex Artery</nciodm:PreferredTerm>
                </EnumeratedItem>
                <EnumeratedItem CodedValue="DISTAL INTERPHALANGEAL JOINT 2" nciodm:ExtCodeID="C102291">
                    <nciodm:CDISCSynonym>DIP2</nciodm:CDISCSynonym>
                    <nciodm:CDISCDefinition>A condyloid synovial joint within the second digit of the hand or foot connecting the middle and distal phalanges. (NCI)</nciodm:CDISCDefinition>
                    <nciodm:PreferredTerm>Distal Interphalangeal Joint 2</nciodm:PreferredTerm>
                </EnumeratedItem>
                <EnumeratedItem CodedValue="DISTAL INTERPHALANGEAL JOINT 2 OF THE FOOT" nciodm:ExtCodeID="C114198">
                    <nciodm:CDISCSynonym>DIP2 of the Foot</nciodm:CDISCSynonym>
                    <nciodm:CDISCDefinition>A ginglymoid (hinge) synovial joint within the second digit of the foot connecting the middle and distal phalanges. (NCI)</nciodm:CDISCDefinition>
                    <nciodm:PreferredTerm>Distal Interphalangeal Joint 2 of the Foot</nciodm:PreferredTerm>
                </EnumeratedItem>
                <EnumeratedItem CodedValue="DISTAL INTERPHALANGEAL JOINT 2 OF THE HAND" nciodm:ExtCodeID="C114188">
                    <nciodm:CDISCSynonym>DIP2 of the Hand</nciodm:CDISCSynonym>
                    <nciodm:CDISCDefinition>A ginglymoid (hinge) synovial joint within the second digit of the hand connecting the middle and distal phalanges. (NCI)</nciodm:CDISCDefinition>
                    <nciodm:PreferredTerm>Distal Interphalangeal Joint 2 of the Hand</nciodm:PreferredTerm>
                </EnumeratedItem>
                <EnumeratedItem CodedValue="DISTAL INTERPHALANGEAL JOINT 3" nciodm:ExtCodeID="C102292">
                    <nciodm:CDISCSynonym>DIP3</nciodm:CDISCSynonym>
                    <nciodm:CDISCDefinition>A condyloid synovial joint within the third digit of the hand or foot connecting the middle and distal phalanges. (NCI)</nciodm:CDISCDefinition>
                    <nciodm:PreferredTerm>Distal Interphalangeal Joint 3</nciodm:PreferredTerm>
                </EnumeratedItem>
                <EnumeratedItem CodedValue="DISTAL INTERPHALANGEAL JOINT 3 OF THE FOOT" nciodm:ExtCodeID="C114199">
                    <nciodm:CDISCSynonym>DIP3 of the Foot</nciodm:CDISCSynonym>
                    <nciodm:CDISCDefinition>A ginglymoid (hinge) synovial joint within the third digit of the foot connecting the middle and distal phalanges. (NCI)</nciodm:CDISCDefinition>
                    <nciodm:PreferredTerm>Distal Interphalangeal Joint 3 of the Foot</nciodm:PreferredTerm>
                </EnumeratedItem>
                <EnumeratedItem CodedValue="DISTAL INTERPHALANGEAL JOINT 3 OF THE HAND" nciodm:ExtCodeID="C114189">
                    <nciodm:CDISCSynonym>DIP3 of the Hand</nciodm:CDISCSynonym>
                    <nciodm:CDISCDefinition>A ginglymoid (hinge) synovial joint within the third digit of the hand connecting the middle and distal phalanges. (NCI)</nciodm:CDISCDefinition>
                    <nciodm:PreferredTerm>Distal Interphalangeal Joint 3 of the Hand</nciodm:PreferredTerm>
                </EnumeratedItem>
                <EnumeratedItem CodedValue="DISTAL INTERPHALANGEAL JOINT 4" nciodm:ExtCodeID="C102293">
                    <nciodm:CDISCSynonym>DIP4</nciodm:CDISCSynonym>
                    <nciodm:CDISCDefinition>A condyloid synovial joint within the fourth digit of the hand or foot connecting the middle and distal phalanges. (NCI)</nciodm:CDISCDefinition>
                    <nciodm:PreferredTerm>Distal Interphalangeal Joint 4</nciodm:PreferredTerm>
                </EnumeratedItem>
                <EnumeratedItem CodedValue="DISTAL INTERPHALANGEAL JOINT 4 OF THE FOOT" nciodm:ExtCodeID="C114275">
                    <nciodm:CDISCSynonym>DIP4 of the Foot</nciodm:CDISCSynonym>
                    <nciodm:CDISCDefinition>A ginglymoid (hinge) synovial joint within the fourth digit of the foot connecting the middle and distal phalanges. (NCI)</nciodm:CDISCDefinition>
                    <nciodm:PreferredTerm>Distal Interphalangeal Joint 4 of the Foot</nciodm:PreferredTerm>
                </EnumeratedItem>
                <EnumeratedItem CodedValue="DISTAL INTERPHALANGEAL JOINT 4 OF THE HAND" nciodm:ExtCodeID="C114273">
                    <nciodm:CDISCSynonym>DIP4 of the Hand</nciodm:CDISCSynonym>
                    <nciodm:CDISCDefinition>A ginglymoid (hinge) synovial joint within the fourth digit of the hand connecting the middle and distal phalanges. (NCI)</nciodm:CDISCDefinition>
                    <nciodm:PreferredTerm>Distal Interphalangeal Joint 4 of the Hand</nciodm:PreferredTerm>
                </EnumeratedItem>
                <EnumeratedItem CodedValue="DISTAL INTERPHALANGEAL JOINT 5" nciodm:ExtCodeID="C102294">
                    <nciodm:CDISCSynonym>DIP5</nciodm:CDISCSynonym>
                    <nciodm:CDISCDefinition>A condyloid synovial joint within the fifth digit of the hand or foot connecting the middle and distal phalanges. (NCI)</nciodm:CDISCDefinition>
                    <nciodm:PreferredTerm>Distal Interphalangeal Joint 5</nciodm:PreferredTerm>
                </EnumeratedItem>
                <EnumeratedItem CodedValue="DISTAL INTERPHALANGEAL JOINT 5 OF THE FOOT" nciodm:ExtCodeID="C114276">
                    <nciodm:CDISCSynonym>DIP5 of the Foot</nciodm:CDISCSynonym>
                    <nciodm:CDISCDefinition>A ginglymoid (hinge) synovial joint within the fifth digit of the foot connecting the middle and distal phalanges. (NCI)</nciodm:CDISCDefinition>
                    <nciodm:PreferredTerm>Distal Interphalangeal Joint 5 of the Foot</nciodm:PreferredTerm>
                </EnumeratedItem>
                <EnumeratedItem CodedValue="DISTAL INTERPHALANGEAL JOINT 5 OF THE HAND" nciodm:ExtCodeID="C114274">
                    <nciodm:CDISCSynonym>DIP5 of the Hand</nciodm:CDISCSynonym>
                    <nciodm:CDISCDefinition>A ginglymoid (hinge) synovial joint within the fifth digit of the hand connecting the middle and distal phalanges. (NCI)</nciodm:CDISCDefinition>
                    <nciodm:PreferredTerm>Distal Interphalangeal Joint 5 of the Hand</nciodm:PreferredTerm>
                </EnumeratedItem>
                <EnumeratedItem CodedValue="DISTAL LAD ARTERY" nciodm:ExtCodeID="C102295">
                    <nciodm:CDISCSynonym>DISTAL LAD ARTERY SEGMENT</nciodm:CDISCSynonym>
                    <nciodm:CDISCSynonym>DLAD</nciodm:CDISCSynonym>
                    <nciodm:CDISCDefinition>The segment of the left anterior descending (LAD) artery that is distal to the third diagonal branch.</nciodm:CDISCDefinition>
                    <nciodm:PreferredTerm>Distal Left Anterior Descending Artery</nciodm:PreferredTerm>
                </EnumeratedItem>
                <EnumeratedItem CodedValue="DISTAL RIGHT CORONARY ARTERY CONDUIT" nciodm:ExtCodeID="C102296">
                    <nciodm:CDISCSynonym>DISTAL RIGHT CORONARY ARTERY CONDUIT SEGMENT</nciodm:CDISCSynonym>
                    <nciodm:CDISCSynonym>DRCA</nciodm:CDISCSynonym>
                    <nciodm:CDISCDefinition>The section of the right coronary artery distal to the origin of the acute marginal artery.</nciodm:CDISCDefinition>
                    <nciodm:PreferredTerm>Distal Right Coronary Artery Conduit</nciodm:PreferredTerm>
                </EnumeratedItem>
                <EnumeratedItem CodedValue="DORSAL MOTOR NUCLEUS" nciodm:ExtCodeID="C12934">
                    <nciodm:CDISCDefinition>A brain nucleus located in the medulla oblongata. (NCI)</nciodm:CDISCDefinition>
                    <nciodm:PreferredTerm>Dorsal Motor Nucleus</nciodm:PreferredTerm>
                </EnumeratedItem>
                <EnumeratedItem CodedValue="DORSALIS PEDIS ARTERY" nciodm:ExtCodeID="C32478">
                    <nciodm:CDISCSynonym>Dorsalis Pedis Artery</nciodm:CDISCSynonym>
                    <nciodm:CDISCDefinition>An artery of the dorsal surface of the foot, originating from the anterior tibial artery of the lower leg. The following arterial branches originate from the dorsalis pedis artery: the arcuate artery of the foot and deep plantar artery. (NCI)</nciodm:CDISCDefinition>
                    <nciodm:PreferredTerm>Dorsalis Pedis Artery</nciodm:PreferredTerm>
                </EnumeratedItem>
                <EnumeratedItem CodedValue="DUODENUM" nciodm:ExtCodeID="C12263">
                    <nciodm:CDISCDefinition>A jointed tube 25-30 cm long that connects the stomach to the jejunum. (NCI)</nciodm:CDISCDefinition>
                    <nciodm:PreferredTerm>Duodenum</nciodm:PreferredTerm>
                </EnumeratedItem>
                <EnumeratedItem CodedValue="DURAL VENOUS SINUS" nciodm:ExtCodeID="C102627">
                    <nciodm:CDISCDefinition>Venous channels within the dura mater of the brain which receives both blood from blood vessels within the brain as well as cerebrospinal fluid then drains into the internal jugular vein. Unlike other blood vessels, dural venous sinuses lack valves and other vessel associated layers.</nciodm:CDISCDefinition>
                    <nciodm:PreferredTerm>Dural Venous Sinus</nciodm:PreferredTerm>
                </EnumeratedItem>
                <EnumeratedItem CodedValue="EAR" nciodm:ExtCodeID="C12394">
                    <nciodm:CDISCSynonym>Ear</nciodm:CDISCSynonym>
                    <nciodm:CDISCDefinition>A sense organ needed for the detection of sound and for establishing balance. The outer ear consists of the auricle, the ear canal as well as the tympanic membrane. The middle ear is made up of an air-filled cavity behind the tympanic membrane that contains the ossicles (malleus, incus and stapes). The inner ear is made up of the cochlea needed for hearing and the vestibular apparatus required for balance. (NCI)</nciodm:CDISCDefinition>
                    <nciodm:PreferredTerm>Ear</nciodm:PreferredTerm>
                </EnumeratedItem>
                <EnumeratedItem CodedValue="EAR, INNER" nciodm:ExtCodeID="C12499">
                    <nciodm:CDISCSynonym>Cochlea</nciodm:CDISCSynonym>
                    <nciodm:CDISCSynonym>Internal Ear</nciodm:CDISCSynonym>
                    <nciodm:CDISCSynonym>Labyrinth</nciodm:CDISCSynonym>
                    <nciodm:CDISCDefinition>The portion of the ear located within the temporal bone that is involved in both hearing and balance and includes the semicircular canals, vestibule, and cochlea. (from American Heritage Dictionary online)</nciodm:CDISCDefinition>
                    <nciodm:PreferredTerm>Inner Ear</nciodm:PreferredTerm>
                </EnumeratedItem>
                <EnumeratedItem CodedValue="EAR, OUTER" nciodm:ExtCodeID="C12292">
                    <nciodm:CDISCSynonym>Auricle</nciodm:CDISCSynonym>
                    <nciodm:CDISCSynonym>External Ear</nciodm:CDISCSynonym>
                    <nciodm:CDISCDefinition>The external part of the ear. (NCI)</nciodm:CDISCDefinition>
                    <nciodm:PreferredTerm>External Ear</nciodm:PreferredTerm>
                </EnumeratedItem>
                <EnumeratedItem CodedValue="ELBOW JOINT" nciodm:ExtCodeID="C32497">
                    <nciodm:CDISCSynonym>Elbow Joint</nciodm:CDISCSynonym>
                    <nciodm:CDISCDefinition>A joint involving the humerus, radius and ulna bones.</nciodm:CDISCDefinition>
                    <nciodm:PreferredTerm>Elbow Joint</nciodm:PreferredTerm>
                </EnumeratedItem>
                <EnumeratedItem CodedValue="ENDOCARDIUM" nciodm:ExtCodeID="C13004">
                    <nciodm:CDISCDefinition>The layer of endothelial cells and connective tissue lining the chambers of the heart. (NCI)</nciodm:CDISCDefinition>
                    <nciodm:PreferredTerm>Endocardium</nciodm:PreferredTerm>
                </EnumeratedItem>
                <EnumeratedItem CodedValue="ENDOCERVIX" nciodm:ExtCodeID="C12309">
                    <nciodm:CDISCDefinition>The portion of the cervix which is lined by single columnar epithelium (mucosa). (NCI)</nciodm:CDISCDefinition>
                    <nciodm:PreferredTerm>Endocervix</nciodm:PreferredTerm>
                </EnumeratedItem>
                <EnumeratedItem CodedValue="ENDOMETRIAL CAVITY" nciodm:ExtCodeID="C32514">
                    <nciodm:CDISCSynonym>Endometrial Cavity</nciodm:CDISCSynonym>
                    <nciodm:CDISCDefinition>A space inside the uterus lined by a layer of mucus membranes called the endometrium. (NCI)</nciodm:CDISCDefinition>
                    <nciodm:PreferredTerm>Endometrial Cavity</nciodm:PreferredTerm>
                </EnumeratedItem>
                <EnumeratedItem CodedValue="ENTORHINAL CORTEX" nciodm:ExtCodeID="C97338">
                    <nciodm:CDISCDefinition>A brain region in the medial temporal lobe near the hippocampus. (NCI)</nciodm:CDISCDefinition>
                    <nciodm:PreferredTerm>Entorhinal Cortex</nciodm:PreferredTerm>
                </EnumeratedItem>
                <EnumeratedItem CodedValue="EPICARDIUM" nciodm:ExtCodeID="C13164">
                    <nciodm:CDISCDefinition>The outer membranous connective tissue layer of the heart tissue. (NCI)</nciodm:CDISCDefinition>
                    <nciodm:PreferredTerm>Epicardium</nciodm:PreferredTerm>
                </EnumeratedItem>
                <EnumeratedItem CodedValue="EPICONDYLE" nciodm:ExtCodeID="C69300">
                    <nciodm:CDISCSynonym>Epicondyle</nciodm:CDISCSynonym>
                    <nciodm:CDISCDefinition>A bone prominence to which ligaments and tendons of the joints are attached. (NCI)</nciodm:CDISCDefinition>
                    <nciodm:PreferredTerm>Epicondyle</nciodm:PreferredTerm>
                </EnumeratedItem>
                <EnumeratedItem CodedValue="EPIDIDYMIS" nciodm:ExtCodeID="C12328">
                    <nciodm:CDISCDefinition>A crescent-like structure located in the upper and posterior surfaces of the testis. It consists of the efferent ductules and the duct of the epididymis. It facilitates the maturation of sperm that is produced in the testis. (NCI)</nciodm:CDISCDefinition>
                    <nciodm:PreferredTerm>Epididymis</nciodm:PreferredTerm>
                </EnumeratedItem>
                <EnumeratedItem CodedValue="EPIGLOTTIS" nciodm:ExtCodeID="C12709">
                    <nciodm:CDISCSynonym>Epiglottis</nciodm:CDISCSynonym>
                    <nciodm:CDISCDefinition>A small cartilagenous flap-like valve that closes over the larynx during swallowing to prevent food entering the lungs. (NCI)</nciodm:CDISCDefinition>
                    <nciodm:PreferredTerm>Epiglottis</nciodm:PreferredTerm>
                </EnumeratedItem>
                <EnumeratedItem CodedValue="EPITROCHLEAR LYMPH NODE" nciodm:ExtCodeID="C98182">
                    <nciodm:CDISCDefinition>A lymph node located above and adjacent to the elbow. (NCI)</nciodm:CDISCDefinition>
                    <nciodm:PreferredTerm>Epitrochlear Lymph Node</nciodm:PreferredTerm>
                </EnumeratedItem>
                <EnumeratedItem CodedValue="ESOPHAGUS" nciodm:ExtCodeID="C12389">
                    <nciodm:CDISCSynonym>Esophagus</nciodm:CDISCSynonym>
                    <nciodm:CDISCDefinition>The portion of the digestive canal between the pharynx and stomach. It is about 25 cm long and consists of three parts: the cervical part, from the cricoid cartilage to the thoracic inlet; thoracic part, from thoracic inlet to the diaphragm; and abdominal part, below the diaphragm to the cardiac opening of the stomach. (NCI)</nciodm:CDISCDefinition>
                    <nciodm:PreferredTerm>Esophagus</nciodm:PreferredTerm>
                </EnumeratedItem>
                <EnumeratedItem CodedValue="ESOPHAGUS, ABDOMINAL" nciodm:ExtCodeID="C12252">
                    <nciodm:CDISCSynonym>Abdominal Esophagus</nciodm:CDISCSynonym>
                    <nciodm:CDISCDefinition>Clinical esophageal segment composed of smooth muscle. It corresponds to the inferior part of the lower third topographic segment of the esophagus. (NCI)</nciodm:CDISCDefinition>
                    <nciodm:PreferredTerm>Abdominal Esophagus</nciodm:PreferredTerm>
                </EnumeratedItem>
                <EnumeratedItem CodedValue="ESOPHAGUS, CERVICAL" nciodm:ExtCodeID="C12250">
                    <nciodm:CDISCSynonym>Cervical Esophagus</nciodm:CDISCSynonym>
                    <nciodm:CDISCDefinition>Clinical esophageal segment composed of skeletal muscle. It corresponds to the superior part of the upper third topographic segment of the esophagus. (NCI)</nciodm:CDISCDefinition>
                    <nciodm:PreferredTerm>Cervical Esophagus</nciodm:PreferredTerm>
                </EnumeratedItem>
                <EnumeratedItem CodedValue="ESOPHAGUS, LOWER THIRD" nciodm:ExtCodeID="C12255">
                    <nciodm:CDISCSynonym>Lower Third of the Esophagus</nciodm:CDISCSynonym>
                    <nciodm:CDISCDefinition>The lower one third of the esophagus in which the muscle layer is composed of muscle cells predominantly of the smooth type. (NCI)</nciodm:CDISCDefinition>
                    <nciodm:PreferredTerm>Lower Third of the Esophagus</nciodm:PreferredTerm>
                </EnumeratedItem>
                <EnumeratedItem CodedValue="ESOPHAGUS, MIDDLE THIRD" nciodm:ExtCodeID="C12254">
                    <nciodm:CDISCSynonym>Middle Third of the Esophagus</nciodm:CDISCSynonym>
                    <nciodm:CDISCDefinition>The middle one third of the esophagus in which the muscle layer is composed of muscle cells of the striated and smooth types.</nciodm:CDISCDefinition>
                    <nciodm:PreferredTerm>Middle Third of the Esophagus</nciodm:PreferredTerm>
                </EnumeratedItem>
                <EnumeratedItem CodedValue="ESOPHAGUS, THORACIC" nciodm:ExtCodeID="C12251">
                    <nciodm:CDISCSynonym>Thoracic Esophagus</nciodm:CDISCSynonym>
                    <nciodm:CDISCDefinition>Clinical esophageal segment composed of smooth muscle. It includes the middle third topographic segment, as well as parts of the upper and lower thirds. (NCI)</nciodm:CDISCDefinition>
                    <nciodm:PreferredTerm>Thoracic Esophagus</nciodm:PreferredTerm>
                </EnumeratedItem>
                <EnumeratedItem CodedValue="ESOPHAGUS, UPPER THIRD" nciodm:ExtCodeID="C12253">
                    <nciodm:CDISCSynonym>Upper Third of the Esophagus</nciodm:CDISCSynonym>
                    <nciodm:CDISCDefinition>The upper one third of esophagus in which the muscle layer is composed of muscle cells of the striated type. (NCI)</nciodm:CDISCDefinition>
                    <nciodm:PreferredTerm>Upper Third of the Esophagus</nciodm:PreferredTerm>
                </EnumeratedItem>
                <EnumeratedItem CodedValue="ETHMOID BONE" nciodm:ExtCodeID="C12711">
                    <nciodm:CDISCSynonym>Ethmoid Bone</nciodm:CDISCSynonym>
                    <nciodm:CDISCDefinition>A light and spongy bone that is cubical in shape. This bone is positioned at the anterior part of the cranium, sitting between the two orbits, at the roof of the nose. It consists of four parts: a horizontal or cribriform plate; a perpendicular plate; and two lateral masses or labyrinths. (NCI)</nciodm:CDISCDefinition>
                    <nciodm:PreferredTerm>Ethmoid Bone</nciodm:PreferredTerm>
                </EnumeratedItem>
                <EnumeratedItem CodedValue="ETHMOID SINUS" nciodm:ExtCodeID="C12276">
                    <nciodm:CDISCSynonym>Ethmoid Sinus</nciodm:CDISCSynonym>
                    <nciodm:CDISCDefinition>A sinus of the meatuses of the nasal cavity. (NCI)</nciodm:CDISCDefinition>
                    <nciodm:PreferredTerm>Ethmoid Sinus</nciodm:PreferredTerm>
                </EnumeratedItem>
                <EnumeratedItem CodedValue="EXTERNAL ILIAC ARTERY" nciodm:ExtCodeID="C32558">
                    <nciodm:CDISCDefinition>An artery arising from the bifurcation of the common iliac artery in the lower torso. The external iliac artery becomes the femoral artery and is the main blood supply for the leg.</nciodm:CDISCDefinition>
                    <nciodm:PreferredTerm>External Iliac Artery</nciodm:PreferredTerm>
                </EnumeratedItem>
                <EnumeratedItem CodedValue="EXTERNAL ILIAC LYMPH NODE" nciodm:ExtCodeID="C88143">
                    <nciodm:CDISCDefinition>A lymph node located along the external iliac artery. (NCI)</nciodm:CDISCDefinition>
                    <nciodm:PreferredTerm>External Iliac Lymph Node</nciodm:PreferredTerm>
                </EnumeratedItem>
                <EnumeratedItem CodedValue="EXTRAHEPATIC BILE DUCT" nciodm:ExtCodeID="C32573">
                    <nciodm:CDISCDefinition>The portion of the biliary tract outside the liver; the common hepatic duct joins the cystic duct to form the common bile duct. (NCI)</nciodm:CDISCDefinition>
                    <nciodm:PreferredTerm>Extrahepatic Bile Duct</nciodm:PreferredTerm>
                </EnumeratedItem>
                <EnumeratedItem CodedValue="EYE" nciodm:ExtCodeID="C12401">
                    <nciodm:CDISCSynonym>Eye</nciodm:CDISCSynonym>
                    <nciodm:CDISCSynonym>Eyeball</nciodm:CDISCSynonym>
                    <nciodm:CDISCDefinition>The organ of sight or vision. (NCI)</nciodm:CDISCDefinition>
                    <nciodm:PreferredTerm>Eye</nciodm:PreferredTerm>
                </EnumeratedItem>
                <EnumeratedItem CodedValue="EYE, ANTERIOR CHAMBER" nciodm:ExtCodeID="C12667">
                    <nciodm:CDISCDefinition>The space in the eye, filled with aqueous humor, bounded anteriorly by the cornea and a small portion of the sclera and posteriorly by a small portion of the ciliary body, the iris, and that part of the crystalline lens which presents through the pupil. (Cline et al., Dictionary of Visual Science, 4th ed, p109) (NCI)</nciodm:CDISCDefinition>
                    <nciodm:PreferredTerm>Anterior Chamber of the Eye</nciodm:PreferredTerm>
                </EnumeratedItem>
                <EnumeratedItem CodedValue="EYE, VITREOUS CHAMBER" nciodm:ExtCodeID="C33885">
                    <nciodm:CDISCSynonym>Postremal Chamber</nciodm:CDISCSynonym>
                    <nciodm:CDISCDefinition>The largest space within the eye which is bounded by the lens and the retina and filled with the gelatinous vitreous humor. (NCI)</nciodm:CDISCDefinition>
                    <nciodm:PreferredTerm>Vitreous Chamber</nciodm:PreferredTerm>
                </EnumeratedItem>
                <EnumeratedItem CodedValue="EYELASH" nciodm:ExtCodeID="C32576">
                    <nciodm:CDISCDefinition>Anyone of the short hairs that grow on the edge of the eyelid. (NCI)</nciodm:CDISCDefinition>
                    <nciodm:PreferredTerm>Eyelash</nciodm:PreferredTerm>
                </EnumeratedItem>
                <EnumeratedItem CodedValue="EYELID" nciodm:ExtCodeID="C12713">
                    <nciodm:CDISCSynonym>Eyelid</nciodm:CDISCSynonym>
                    <nciodm:CDISCSynonym>Palpebra</nciodm:CDISCSynonym>
                    <nciodm:CDISCDefinition>A thin membrane of skin with the purpose of covering and protecting an eye. (NCI)</nciodm:CDISCDefinition>
                    <nciodm:PreferredTerm>Eyelid</nciodm:PreferredTerm>
                </EnumeratedItem>
                <EnumeratedItem CodedValue="FACE" nciodm:ExtCodeID="C13071">
                    <nciodm:CDISCSynonym>Face</nciodm:CDISCSynonym>
                    <nciodm:CDISCSynonym>Facial</nciodm:CDISCSynonym>
                    <nciodm:CDISCDefinition>The anterior portion of the head extending from the forehead to the chin and ear to ear. The facial structures contain the eyes, nose and mouth, cheeks and jaws. (NCI)</nciodm:CDISCDefinition>
                    <nciodm:PreferredTerm>Face</nciodm:PreferredTerm>
                </EnumeratedItem>
                <EnumeratedItem CodedValue="FACET JOINT" nciodm:ExtCodeID="C32577">
                    <nciodm:CDISCSynonym>Facet Joint</nciodm:CDISCSynonym>
                    <nciodm:CDISCDefinition>A synovial joint between two adjacent vertebrae. The facet joint links the articular process of one vertebra and the inferior articular process of the adjacent vertebra. (NCI)</nciodm:CDISCDefinition>
                    <nciodm:PreferredTerm>Facet Joint</nciodm:PreferredTerm>
                </EnumeratedItem>
                <EnumeratedItem CodedValue="FACIAL BONE" nciodm:ExtCodeID="C63706">
                    <nciodm:CDISCSynonym>Facial Bone</nciodm:CDISCSynonym>
                    <nciodm:CDISCDefinition>Any bone that contributes to the facial structures, except those bones that are part of the braincase. (NCI)</nciodm:CDISCDefinition>
                    <nciodm:PreferredTerm>Facial Bone</nciodm:PreferredTerm>
                </EnumeratedItem>
                <EnumeratedItem CodedValue="FACIAL NERVE" nciodm:ExtCodeID="C12714">
                    <nciodm:CDISCSynonym>Seventh Cranial Nerve</nciodm:CDISCSynonym>
                    <nciodm:CDISCDefinition>The 7th cranial nerve. The facial nerve has two parts, the larger motor root which may be called the facial nerve proper, and the smaller intermediate or sensory root. Together they provide efferent innervation to the muscles of facial expression and to the lacrimal and salivary glands, and convey afferent information for taste from the anterior two-thirds of the tongue and for touch from the external ear. (MeSH)</nciodm:CDISCDefinition>
                    <nciodm:PreferredTerm>Facial Nerve</nciodm:PreferredTerm>
                </EnumeratedItem>
                <EnumeratedItem CodedValue="FALLOPIAN TUBE" nciodm:ExtCodeID="C12403">
                    <nciodm:CDISCSynonym>Fallopian Tube</nciodm:CDISCSynonym>
                    <nciodm:CDISCDefinition>One of a pair of tubes that extend from the uterus to each of the ovaries. Following ovulation the egg travels down the fallopian tube to the uterus where fertilization may or may not occur. (NCI)</nciodm:CDISCDefinition>
                    <nciodm:PreferredTerm>Fallopian Tube</nciodm:PreferredTerm>
                </EnumeratedItem>
                <EnumeratedItem CodedValue="FASCIA" nciodm:ExtCodeID="C13108">
                    <nciodm:CDISCDefinition>A sheet or band of fibrous connective tissue enveloping, separating, or binding together muscles, organs and other soft structures of the body.</nciodm:CDISCDefinition>
                    <nciodm:PreferredTerm>Fascia</nciodm:PreferredTerm>
                </EnumeratedItem>
                <EnumeratedItem CodedValue="FEMALE GENITALIA" nciodm:ExtCodeID="C61600">
                    <nciodm:CDISCSynonym>Female Genitalia</nciodm:CDISCSynonym>
                    <nciodm:CDISCDefinition>Female internal and external organs of reproduction.</nciodm:CDISCDefinition>
                    <nciodm:PreferredTerm>Female Genitalia</nciodm:PreferredTerm>
                </EnumeratedItem>
                <EnumeratedItem CodedValue="FEMALE REPRODUCTIVE SYSTEM" nciodm:ExtCodeID="C12402">
                    <nciodm:CDISCDefinition>The sex organs of the female.</nciodm:CDISCDefinition>
                    <nciodm:PreferredTerm>Female Reproductive System</nciodm:PreferredTerm>
                </EnumeratedItem>
                <EnumeratedItem CodedValue="FEMORAL ARTERY" nciodm:ExtCodeID="C12715">
                    <nciodm:CDISCSynonym>Femoral Artery</nciodm:CDISCSynonym>
                    <nciodm:CDISCDefinition>An artery that starts within the inguinal region and extends to the lower extremities. (NCI)</nciodm:CDISCDefinition>
                    <nciodm:PreferredTerm>Femoral Artery</nciodm:PreferredTerm>
                </EnumeratedItem>
                <EnumeratedItem CodedValue="FEMORAL CONDYLE" nciodm:ExtCodeID="C114186">
                    <nciodm:CDISCDefinition>The rounded bony projection at the distal end of the femur.</nciodm:CDISCDefinition>
                    <nciodm:PreferredTerm>Femoral Condyle</nciodm:PreferredTerm>
                </EnumeratedItem>
                <EnumeratedItem CodedValue="FEMORAL HEAD" nciodm:ExtCodeID="C32718">
                    <nciodm:CDISCSynonym>Femur Head</nciodm:CDISCSynonym>
                    <nciodm:CDISCDefinition>The highest portion of the femoral bone that articulates with the acetabulum. (NCI)</nciodm:CDISCDefinition>
                    <nciodm:PreferredTerm>Head of the Femur</nciodm:PreferredTerm>
                </EnumeratedItem>
                <EnumeratedItem CodedValue="FEMORAL LYMPH NODE" nciodm:ExtCodeID="C98183">
                    <nciodm:CDISCDefinition>A lymph node located in the upper inner portion of the thigh. (NCI)</nciodm:CDISCDefinition>
                    <nciodm:PreferredTerm>Femoral Lymph Node</nciodm:PreferredTerm>
                </EnumeratedItem>
                <EnumeratedItem CodedValue="FEMORAL NECK" nciodm:ExtCodeID="C61563">
                    <nciodm:CDISCSynonym>Femoral Neck</nciodm:CDISCSynonym>
                    <nciodm:CDISCDefinition>The short, constricted portion of the thigh bone between the femur head and the trochanter. (NCI)</nciodm:CDISCDefinition>
                    <nciodm:PreferredTerm>Femoral Neck</nciodm:PreferredTerm>
                </EnumeratedItem>
                <EnumeratedItem CodedValue="FEMORAL VEIN" nciodm:ExtCodeID="C12716">
                    <nciodm:CDISCSynonym>Femoral Vein</nciodm:CDISCSynonym>
                    <nciodm:CDISCDefinition>A vein that starts within the inguinal region and extends to the lower extremities. (NCI)</nciodm:CDISCDefinition>
                    <nciodm:PreferredTerm>Femoral Vein</nciodm:PreferredTerm>
                </EnumeratedItem>
                <EnumeratedItem CodedValue="FEMORO-POPLITEAL PERIPHERAL ARTERY" nciodm:ExtCodeID="C116167">
                    <nciodm:CDISCDefinition>The segment of the blood vessels that includes the popliteal artery and its origin from the femoral artery.</nciodm:CDISCDefinition>
                    <nciodm:PreferredTerm>Femoropopliteal Artery Segment</nciodm:PreferredTerm>
                </EnumeratedItem>
                <EnumeratedItem CodedValue="FEMUR" nciodm:ExtCodeID="C12717">
                    <nciodm:CDISCSynonym>Bone, Femoral</nciodm:CDISCSynonym>
                    <nciodm:CDISCSynonym>Femur</nciodm:CDISCSynonym>
                    <nciodm:CDISCDefinition>The upper leg bone positioned between the pelvis and the knee. (NCI)</nciodm:CDISCDefinition>
                    <nciodm:PreferredTerm>Femur</nciodm:PreferredTerm>
                </EnumeratedItem>
                <EnumeratedItem CodedValue="FIBULA" nciodm:ExtCodeID="C12718">
                    <nciodm:CDISCSynonym>Fibula</nciodm:CDISCSynonym>
                    <nciodm:CDISCDefinition>The small, lateral calf bone extending from the knee to the ankle. (NCI)</nciodm:CDISCDefinition>
                    <nciodm:PreferredTerm>Fibula</nciodm:PreferredTerm>
                </EnumeratedItem>
                <EnumeratedItem CodedValue="FINGER" nciodm:ExtCodeID="C32608">
                    <nciodm:CDISCSynonym>Finger</nciodm:CDISCSynonym>
                    <nciodm:CDISCDefinition>Any of the digits of the hand. (NCI)</nciodm:CDISCDefinition>
                    <nciodm:PreferredTerm>Finger</nciodm:PreferredTerm>
                </EnumeratedItem>
                <EnumeratedItem CodedValue="FINGERNAIL" nciodm:ExtCodeID="C32609">
                    <nciodm:CDISCSynonym>Fingernail</nciodm:CDISCSynonym>
                    <nciodm:CDISCDefinition>The nail at the end of a finger. (NCI)</nciodm:CDISCDefinition>
                    <nciodm:PreferredTerm>Fingernail</nciodm:PreferredTerm>
                </EnumeratedItem>
                <EnumeratedItem CodedValue="FIRST DIAGONAL BRANCH ARTERY" nciodm:ExtCodeID="C102297">
                    <nciodm:CDISCSynonym>1ST DIAG</nciodm:CDISCSynonym>
                    <nciodm:CDISCSynonym>FIRST DIAGONAL BRANCH ARTERY SEGMENT</nciodm:CDISCSynonym>
                    <nciodm:CDISCDefinition>The first artery arising from the left anterior descending (LAD) artery that supplies the anterolateral wall, when counted from proximal to distal.</nciodm:CDISCDefinition>
                    <nciodm:PreferredTerm>First Diagonal Branch Artery</nciodm:PreferredTerm>
                </EnumeratedItem>
                <EnumeratedItem CodedValue="FIRST LEFT POSTEROLATERAL BRANCH ARTERY" nciodm:ExtCodeID="C102298">
                    <nciodm:CDISCSynonym>1ST LPL</nciodm:CDISCSynonym>
                    <nciodm:CDISCSynonym>FIRST LEFT POSTEROLATERAL BRANCH ARTERY SEGMENT</nciodm:CDISCSynonym>
                    <nciodm:CDISCDefinition>In an individual with a left-dominant heart, this is the first branch that arises from the circumflex artery atrioventricular groove continuation when counted from proximal to distal. It supplies the posterolateral wall.</nciodm:CDISCDefinition>
                    <nciodm:PreferredTerm>First Left Posterolateral Branch Artery</nciodm:PreferredTerm>
                </EnumeratedItem>
                <EnumeratedItem CodedValue="FIRST OBTUSE MARGINAL BRANCH ARTERY" nciodm:ExtCodeID="C102299">
                    <nciodm:CDISCSynonym>1ST OM</nciodm:CDISCSynonym>
                    <nciodm:CDISCSynonym>FIRST OBTUSE MARGINAL BRANCH ARTERY SEGMENT</nciodm:CDISCSynonym>
                    <nciodm:CDISCDefinition>The first artery arising from the left circumflex artery that supplies the lateral wall, when counted from proximal to distal.</nciodm:CDISCDefinition>
                    <nciodm:PreferredTerm>First Obtuse Marginal Branch Artery</nciodm:PreferredTerm>
                </EnumeratedItem>
                <EnumeratedItem CodedValue="FIRST RIGHT POSTEROLATERAL ARTERY" nciodm:ExtCodeID="C102300">
                    <nciodm:CDISCSynonym>1ST RPL</nciodm:CDISCSynonym>
                    <nciodm:CDISCSynonym>FIRST RIGHT POSTEROLATERAL ARTERY SEGMENT</nciodm:CDISCSynonym>
                    <nciodm:CDISCDefinition>In an individual with a right-dominant heart, this is the first branch that arises from the right coronary artery distal to the right posterior descending artery, when counted from proximal to distal.</nciodm:CDISCDefinition>
                    <nciodm:PreferredTerm>First Right Posterolateral Artery</nciodm:PreferredTerm>
                </EnumeratedItem>
                <EnumeratedItem CodedValue="FLOOR OF MOUTH" nciodm:ExtCodeID="C54187">
                    <nciodm:CDISCDefinition>The area of the mouth under the ventral surface of the tongue.</nciodm:CDISCDefinition>
                    <nciodm:PreferredTerm>Floor of Mouth</nciodm:PreferredTerm>
                </EnumeratedItem>
                <EnumeratedItem CodedValue="FOOT" nciodm:ExtCodeID="C32622">
                    <nciodm:CDISCSynonym>Feet</nciodm:CDISCSynonym>
                    <nciodm:CDISCSynonym>Foot</nciodm:CDISCSynonym>
                    <nciodm:CDISCDefinition>The structure found below the ankle joint required for locomotion. (NCI)</nciodm:CDISCDefinition>
                    <nciodm:PreferredTerm>Foot</nciodm:PreferredTerm>
                </EnumeratedItem>
                <EnumeratedItem CodedValue="FOOT DIGIT 1" nciodm:ExtCodeID="C52839">
                    <nciodm:CDISCSynonym>Big Toe</nciodm:CDISCSynonym>
                    <nciodm:CDISCDefinition>The largest and most medial toe of the foot. (NCI)</nciodm:CDISCDefinition>
                    <nciodm:PreferredTerm>Foot Digit 1</nciodm:PreferredTerm>
                </EnumeratedItem>
                <EnumeratedItem CodedValue="FOOT DIGIT 2" nciodm:ExtCodeID="C52840">
                    <nciodm:CDISCSynonym>Index Toe</nciodm:CDISCSynonym>
                    <nciodm:CDISCDefinition>The second toe from the medial side of the foot. (NCI)</nciodm:CDISCDefinition>
                    <nciodm:PreferredTerm>Foot Digit 2</nciodm:PreferredTerm>
                </EnumeratedItem>
                <EnumeratedItem CodedValue="FOOT DIGIT 3" nciodm:ExtCodeID="C52841">
                    <nciodm:CDISCSynonym>Middle Toe</nciodm:CDISCSynonym>
                    <nciodm:CDISCDefinition>The middle or third toe from the medial side of the foot. (NCI)</nciodm:CDISCDefinition>
                    <nciodm:PreferredTerm>Foot Digit 3</nciodm:PreferredTerm>
                </EnumeratedItem>
                <EnumeratedItem CodedValue="FOOT DIGIT 4" nciodm:ExtCodeID="C52842">
                    <nciodm:CDISCSynonym>Fourth Toe</nciodm:CDISCSynonym>
                    <nciodm:CDISCDefinition>The fourth toe from the medial side of the foot. (NCI)</nciodm:CDISCDefinition>
                    <nciodm:PreferredTerm>Foot Digit 4</nciodm:PreferredTerm>
                </EnumeratedItem>
                <EnumeratedItem CodedValue="FOOT DIGIT 5" nciodm:ExtCodeID="C52843">
                    <nciodm:CDISCSynonym>Little Toe</nciodm:CDISCSynonym>
                    <nciodm:CDISCDefinition>The smallest and most lateral toe of the foot. (NCI)</nciodm:CDISCDefinition>
                    <nciodm:PreferredTerm>Foot Digit 5</nciodm:PreferredTerm>
                </EnumeratedItem>
                <EnumeratedItem CodedValue="FOOT PHALANX" nciodm:ExtCodeID="C52772">
                    <nciodm:CDISCSynonym>Foot Phalanx</nciodm:CDISCSynonym>
                    <nciodm:CDISCDefinition>A bone of the foot. (NCI)</nciodm:CDISCDefinition>
                    <nciodm:PreferredTerm>Foot Phalanx</nciodm:PreferredTerm>
                </EnumeratedItem>
                <EnumeratedItem CodedValue="FOREARM" nciodm:ExtCodeID="C32628">
                    <nciodm:CDISCSynonym>Forearm</nciodm:CDISCSynonym>
                    <nciodm:CDISCDefinition>The structure on the upper limb, between the elbow and the wrist. (NCI)</nciodm:CDISCDefinition>
                    <nciodm:PreferredTerm>Forearm</nciodm:PreferredTerm>
                </EnumeratedItem>
                <EnumeratedItem CodedValue="FOREBRAIN" nciodm:ExtCodeID="C40185">
                    <nciodm:CDISCDefinition>The largest part of the brain composed of the cerebral hemispheres, thalamus, hypothalamus, and the limbic system. (NCI)</nciodm:CDISCDefinition>
                    <nciodm:PreferredTerm>Forebrain</nciodm:PreferredTerm>
                </EnumeratedItem>
                <EnumeratedItem CodedValue="FOREHEAD" nciodm:ExtCodeID="C89803">
                    <nciodm:CDISCSynonym>Forehead</nciodm:CDISCSynonym>
                    <nciodm:CDISCDefinition>The part of the face between the eyebrows and the normal hairline.</nciodm:CDISCDefinition>
                    <nciodm:PreferredTerm>Forehead</nciodm:PreferredTerm>
                </EnumeratedItem>
                <EnumeratedItem CodedValue="FRONTAL LOBE" nciodm:ExtCodeID="C12352">
                    <nciodm:CDISCSynonym>Frontal Lobe</nciodm:CDISCSynonym>
                    <nciodm:CDISCDefinition>The part of the brain located anterior to the parietal lobes at the front of each cerebral hemisphere. (NCI)</nciodm:CDISCDefinition>
                    <nciodm:PreferredTerm>Frontal Lobe</nciodm:PreferredTerm>
                </EnumeratedItem>
                <EnumeratedItem CodedValue="FRONTAL SINUS" nciodm:ExtCodeID="C12277">
                    <nciodm:CDISCSynonym>Frontal Sinus</nciodm:CDISCSynonym>
                    <nciodm:CDISCDefinition>The paired, mucosal lined air spaces located above the orbit and communicating with the nasal passages. (NCI)</nciodm:CDISCDefinition>
                    <nciodm:PreferredTerm>Frontal Sinus</nciodm:PreferredTerm>
                </EnumeratedItem>
                <EnumeratedItem CodedValue="FUNDUS OF THE STOMACH" nciodm:ExtCodeID="C12257">
                    <nciodm:CDISCSynonym>Fundus of the Stomach</nciodm:CDISCSynonym>
                    <nciodm:CDISCDefinition>The portion of the stomach that lies above the cardiac notch. It allows for the accumulation of gases produced by chemical digestion. (NCI)</nciodm:CDISCDefinition>
                    <nciodm:PreferredTerm>Fundus of the Stomach</nciodm:PreferredTerm>
                </EnumeratedItem>
                <EnumeratedItem CodedValue="GALLBLADDER" nciodm:ExtCodeID="C12377">
                    <nciodm:CDISCSynonym>Gallbladder</nciodm:CDISCSynonym>
                    <nciodm:CDISCDefinition>A pear-shaped organ located under the liver that stores and concentrates bile secreted by the liver. From the gallbladder the bile is delivered through the bile ducts into the intestine thereby aiding the digestion of fat-containing foods. (NCI)</nciodm:CDISCDefinition>
                    <nciodm:PreferredTerm>Gallbladder</nciodm:PreferredTerm>
                </EnumeratedItem>
                <EnumeratedItem CodedValue="GANGLION" nciodm:ExtCodeID="C12719">
                    <nciodm:CDISCSynonym>Ganglia</nciodm:CDISCSynonym>
                    <nciodm:CDISCSynonym>Ganglion</nciodm:CDISCSynonym>
                    <nciodm:CDISCSynonym>Neural Ganglion</nciodm:CDISCSynonym>
                    <nciodm:CDISCDefinition>A cluster of nervous tissue principally composed of neuronal cell bodies external to the central nervous system (CNS). (NCI)</nciodm:CDISCDefinition>
                    <nciodm:PreferredTerm>Ganglion</nciodm:PreferredTerm>
                </EnumeratedItem>
                <EnumeratedItem CodedValue="GASTRIC CARDIA" nciodm:ExtCodeID="C12256">
                    <nciodm:CDISCSynonym>Gastric Cardia</nciodm:CDISCSynonym>
                    <nciodm:CDISCDefinition>The area around the esophagogastric mucosal junction where the esophageal mucosa transitions into the gastric mucosa. (NCI)</nciodm:CDISCDefinition>
                    <nciodm:PreferredTerm>Gastric Cardia</nciodm:PreferredTerm>
                </EnumeratedItem>
                <EnumeratedItem CodedValue="GASTROESOPHAGEAL JUNCTION" nciodm:ExtCodeID="C32668">
                    <nciodm:CDISCSynonym>Gastroesophageal Junction</nciodm:CDISCSynonym>
                    <nciodm:CDISCDefinition>The anatomical location where the esophagus joins to the stomach. (NCI)</nciodm:CDISCDefinition>
                    <nciodm:PreferredTerm>Gastroesophageal Junction</nciodm:PreferredTerm>
                </EnumeratedItem>
                <EnumeratedItem CodedValue="GASTROINTESTINAL SYSTEM" nciodm:ExtCodeID="C12378">
                    <nciodm:CDISCSynonym>Gastrointestinal System</nciodm:CDISCSynonym>
                    <nciodm:CDISCDefinition>The system that includes the esophagus, stomach, small and large intestine, anus, liver, biliary tract, and pancreas. (NCI)</nciodm:CDISCDefinition>
                    <nciodm:PreferredTerm>Gastrointestinal System</nciodm:PreferredTerm>
                </EnumeratedItem>
                <EnumeratedItem CodedValue="GASTROINTESTINAL TRACT" nciodm:ExtCodeID="C34082">
                    <nciodm:CDISCSynonym>Gastrointestinal Tract</nciodm:CDISCSynonym>
                    <nciodm:CDISCDefinition>The upper gastrointestinal (GI) tract is comprised of mouth, pharynx, esophagus and stomach while the lower GI tract consists of intestines and anus. The primary function of the GI tract is to ingest, digest, absorb and ultimately excrete food stuff. (NCI)</nciodm:CDISCDefinition>
                    <nciodm:PreferredTerm>Gastrointestinal Tract</nciodm:PreferredTerm>
                </EnumeratedItem>
                <EnumeratedItem CodedValue="GASTROINTESTINAL TRACT, LOWER" nciodm:ExtCodeID="C33010">
                    <nciodm:CDISCSynonym>Lower Gastrointestinal Tract</nciodm:CDISCSynonym>
                    <nciodm:CDISCDefinition>The lower part of the gastrointestinal tract that includes the jejunum and ileum of the small intestine and the large intestine. (NCI)</nciodm:CDISCDefinition>
                    <nciodm:PreferredTerm>Lower Gastrointestinal Tract</nciodm:PreferredTerm>
                </EnumeratedItem>
                <EnumeratedItem CodedValue="GASTROINTESTINAL TRACT, UPPER" nciodm:ExtCodeID="C33837">
                    <nciodm:CDISCSynonym>Upper Gastrointestinal Tract</nciodm:CDISCSynonym>
                    <nciodm:CDISCDefinition>The upper part of the gastrointestinal tract that includes the esophagus, stomach, and duodenum. (NCI)</nciodm:CDISCDefinition>
                    <nciodm:PreferredTerm>Upper Gastrointestinal Tract</nciodm:PreferredTerm>
                </EnumeratedItem>
                <EnumeratedItem CodedValue="GENITALIA" nciodm:ExtCodeID="C25177">
                    <nciodm:CDISCDefinition>The external sex organs. (NCI)</nciodm:CDISCDefinition>
                    <nciodm:PreferredTerm>Genitalia</nciodm:PreferredTerm>
                </EnumeratedItem>
                <EnumeratedItem CodedValue="GINGIVA" nciodm:ExtCodeID="C32677">
                    <nciodm:CDISCSynonym>Gingiva</nciodm:CDISCSynonym>
                    <nciodm:CDISCSynonym>Gum</nciodm:CDISCSynonym>
                    <nciodm:CDISCDefinition>The soft tissue surrounding the neck of individual teeth as well as covering the alveolar bone. The tissue is fibrous and continuous with the periodontal ligament and mucosal covering. (NCI)</nciodm:CDISCDefinition>
                    <nciodm:PreferredTerm>Gingiva</nciodm:PreferredTerm>
                </EnumeratedItem>
                <EnumeratedItem CodedValue="GLENOID FOSSA" nciodm:ExtCodeID="C32682">
                    <nciodm:CDISCSynonym>Glenoid Fossa</nciodm:CDISCSynonym>
                    <nciodm:CDISCDefinition>The trough in the head of the scapula that receives the head of the humerus to form the shoulder joint. (NCI)</nciodm:CDISCDefinition>
                    <nciodm:PreferredTerm>Glenoid Fossa</nciodm:PreferredTerm>
                </EnumeratedItem>
                <EnumeratedItem CodedValue="GLOSSOPHARYNGEAL NERVE" nciodm:ExtCodeID="C12723">
                    <nciodm:CDISCDefinition>The ninth cranial nerve.</nciodm:CDISCDefinition>
                    <nciodm:PreferredTerm>Glossopharyngeal Nerve</nciodm:PreferredTerm>
                </EnumeratedItem>
                <EnumeratedItem CodedValue="GLOTTIS" nciodm:ExtCodeID="C12724">
                    <nciodm:CDISCSynonym>Glottis</nciodm:CDISCSynonym>
                    <nciodm:CDISCDefinition>The space in which the vocal cords are located. (NCI)</nciodm:CDISCDefinition>
                    <nciodm:PreferredTerm>Glottis</nciodm:PreferredTerm>
                </EnumeratedItem>
                <EnumeratedItem CodedValue="GREAT TROCHANTER" nciodm:ExtCodeID="C32698">
                    <nciodm:CDISCSynonym>Great Trochanter</nciodm:CDISCSynonym>
                    <nciodm:CDISCDefinition>A large, irregular, quadrilateral area of bone found at the neck of the femur. (NCI)</nciodm:CDISCDefinition>
                    <nciodm:PreferredTerm>Great Trochanter</nciodm:PreferredTerm>
                </EnumeratedItem>
                <EnumeratedItem CodedValue="GREATER CURVATURE OF THE STOMACH" nciodm:ExtCodeID="C12262">
                    <nciodm:CDISCSynonym>Greater Curvature of the Stomach</nciodm:CDISCSynonym>
                    <nciodm:CDISCDefinition>The lateral and inferior border of the stomach. Attached to it is the greater omentum. (NCI)</nciodm:CDISCDefinition>
                    <nciodm:PreferredTerm>Greater Curvature of the Stomach</nciodm:PreferredTerm>
                </EnumeratedItem>
                <EnumeratedItem CodedValue="HAIR" nciodm:ExtCodeID="C32705">
                    <nciodm:CDISCSynonym>Hair</nciodm:CDISCSynonym>
                    <nciodm:CDISCDefinition>The filamentous outgrowth of the epidermis. (NCI)</nciodm:CDISCDefinition>
                    <nciodm:PreferredTerm>Hair</nciodm:PreferredTerm>
                </EnumeratedItem>
                <EnumeratedItem CodedValue="HAIR BULB" nciodm:ExtCodeID="C32706">
                    <nciodm:CDISCDefinition>The lower segment of the hair that circles the dermal papilla and the hair matrix. (NCI)</nciodm:CDISCDefinition>
                    <nciodm:PreferredTerm>Hair Bulb</nciodm:PreferredTerm>
                </EnumeratedItem>
                <EnumeratedItem CodedValue="HAIR FOLLICLE" nciodm:ExtCodeID="C13317">
                    <nciodm:CDISCDefinition>A tube-like invagination of the epidermis from which the hair shaft develops and into which the sebaceous glands open; the follicle is lined by a cellular inner and outer root sheath of epidermal origin and is invested with a fibrous sheath derived from the dermis. (NCI)</nciodm:CDISCDefinition>
                    <nciodm:PreferredTerm>Hair Follicle</nciodm:PreferredTerm>
                </EnumeratedItem>
                <EnumeratedItem CodedValue="HAIR ROOT" nciodm:ExtCodeID="C32711">
                    <nciodm:CDISCDefinition>The portion of the hair that is enclosed within the hair follicle. (NCI)</nciodm:CDISCDefinition>
                    <nciodm:PreferredTerm>Hair Root</nciodm:PreferredTerm>
                </EnumeratedItem>
                <EnumeratedItem CodedValue="HAIR SHAFT" nciodm:ExtCodeID="C33543">
                    <nciodm:CDISCSynonym>Shaft of the Hair</nciodm:CDISCSynonym>
                    <nciodm:CDISCDefinition>The segment of the hair that projects above the skin surface. (NCI)</nciodm:CDISCDefinition>
                    <nciodm:PreferredTerm>Shaft of the Hair</nciodm:PreferredTerm>
                </EnumeratedItem>
                <EnumeratedItem CodedValue="HAMATE BONE" nciodm:ExtCodeID="C12860">
                    <nciodm:CDISCSynonym>Hamate Bone</nciodm:CDISCSynonym>
                    <nciodm:CDISCDefinition>The medial bone in the distal row of carpal bones. (NCI)</nciodm:CDISCDefinition>
                    <nciodm:PreferredTerm>Hamate Bone</nciodm:PreferredTerm>
                </EnumeratedItem>
                <EnumeratedItem CodedValue="HAND" nciodm:ExtCodeID="C32712">
                    <nciodm:CDISCSynonym>Hand</nciodm:CDISCSynonym>
                    <nciodm:CDISCDefinition>The distal portion of the upper extremity. It consists of the carpus, metacarpus, and digits. (NCI)</nciodm:CDISCDefinition>
                    <nciodm:PreferredTerm>Hand</nciodm:PreferredTerm>
                </EnumeratedItem>
                <EnumeratedItem CodedValue="HAND DIGIT 1" nciodm:ExtCodeID="C52834">
                    <nciodm:CDISCSynonym>Thumb</nciodm:CDISCSynonym>
                    <nciodm:CDISCDefinition>The thick and short hand digit which is next to the index finger in humans. (NCI)</nciodm:CDISCDefinition>
                    <nciodm:PreferredTerm>Hand Digit 1</nciodm:PreferredTerm>
                </EnumeratedItem>
                <EnumeratedItem CodedValue="HAND DIGIT 2" nciodm:ExtCodeID="C52835">
                    <nciodm:CDISCSynonym>Index Finger</nciodm:CDISCSynonym>
                    <nciodm:CDISCDefinition>The second finger from the radial side of the hand, next to the thumb. (NCI)</nciodm:CDISCDefinition>
                    <nciodm:PreferredTerm>Hand Digit 2</nciodm:PreferredTerm>
                </EnumeratedItem>
                <EnumeratedItem CodedValue="HAND DIGIT 3" nciodm:ExtCodeID="C52836">
                    <nciodm:CDISCSynonym>Middle Finger</nciodm:CDISCSynonym>
                    <nciodm:CDISCDefinition>The middle or third finger from the radial side of the hand. (NCI)</nciodm:CDISCDefinition>
                    <nciodm:PreferredTerm>Hand Digit 3</nciodm:PreferredTerm>
                </EnumeratedItem>
                <EnumeratedItem CodedValue="HAND DIGIT 4" nciodm:ExtCodeID="C52837">
                    <nciodm:CDISCSynonym>Ring Finger</nciodm:CDISCSynonym>
                    <nciodm:CDISCDefinition>The fourth finger from the radial side of the hand. (NCI)</nciodm:CDISCDefinition>
                    <nciodm:PreferredTerm>Hand Digit 4</nciodm:PreferredTerm>
                </EnumeratedItem>
                <EnumeratedItem CodedValue="HAND DIGIT 5" nciodm:ExtCodeID="C52838">
                    <nciodm:CDISCSynonym>Little Finger</nciodm:CDISCSynonym>
                    <nciodm:CDISCDefinition>The fifth and smallest finger from the radial side of the hand. (NCI)</nciodm:CDISCDefinition>
                    <nciodm:PreferredTerm>Hand Digit 5</nciodm:PreferredTerm>
                </EnumeratedItem>
                <EnumeratedItem CodedValue="HAND PHALANX" nciodm:ExtCodeID="C52771">
                    <nciodm:CDISCSynonym>Hand Phalanx</nciodm:CDISCSynonym>
                    <nciodm:CDISCDefinition>A bone of the hand. (NCI)</nciodm:CDISCDefinition>
                    <nciodm:PreferredTerm>Hand Phalanx</nciodm:PreferredTerm>
                </EnumeratedItem>
                <EnumeratedItem CodedValue="HARD PALATE" nciodm:ExtCodeID="C12230">
                    <nciodm:CDISCSynonym>Hard Palate</nciodm:CDISCSynonym>
                    <nciodm:CDISCDefinition>The bony anterior part of the roof of the mouth separating the nose from the mouth. (NCI)</nciodm:CDISCDefinition>
                    <nciodm:PreferredTerm>Hard Palate</nciodm:PreferredTerm>
                </EnumeratedItem>
                <EnumeratedItem CodedValue="HEAD" nciodm:ExtCodeID="C12419">
                    <nciodm:CDISCSynonym>Head</nciodm:CDISCSynonym>
                    <nciodm:CDISCDefinition>The anterior and superior part of a human or animal bearing the mouth, the brain and sensory organs.</nciodm:CDISCDefinition>
                    <nciodm:PreferredTerm>Head</nciodm:PreferredTerm>
                </EnumeratedItem>
                <EnumeratedItem CodedValue="HEAD AND NECK" nciodm:ExtCodeID="C12418">
                    <nciodm:CDISCDefinition>The area of the body comprising the skull, facial bones and the cervical vertebrae, sinuses, orbits, salivary glands, oral cavity, oropharynx, larynx, thyroid, facial and neck musculature, soft tissue and lymph nodes draining these areas.</nciodm:CDISCDefinition>
                    <nciodm:PreferredTerm>Head and Neck</nciodm:PreferredTerm>
                </EnumeratedItem>
                <EnumeratedItem CodedValue="HEAD OF THE HUMERUS" nciodm:ExtCodeID="C32720">
                    <nciodm:CDISCSynonym>Head of the Humerus</nciodm:CDISCSynonym>
                    <nciodm:CDISCDefinition>The upper rounded part of the humerus that fits into the glenoid cavity of the scapula. (NCI)</nciodm:CDISCDefinition>
                    <nciodm:PreferredTerm>Head of the Humerus</nciodm:PreferredTerm>
                </EnumeratedItem>
                <EnumeratedItem CodedValue="HEART" nciodm:ExtCodeID="C12727">
                    <nciodm:CDISCSynonym>Cardiac</nciodm:CDISCSynonym>
                    <nciodm:CDISCSynonym>Heart</nciodm:CDISCSynonym>
                    <nciodm:CDISCDefinition>A hollow muscular organ which receives the blood from the veins and propels it into the arteries. It is divided by a musculomembranous septum into two halves -- right or venous and left or arterial -- each of which consists of a receiving chamber (atrium) and an ejecting chamber (ventricle). (NCI)</nciodm:CDISCDefinition>
                    <nciodm:PreferredTerm>Heart</nciodm:PreferredTerm>
                </EnumeratedItem>
                <EnumeratedItem CodedValue="HEART, APEX" nciodm:ExtCodeID="C32126">
                    <nciodm:CDISCSynonym>Apex of the Heart</nciodm:CDISCSynonym>
                    <nciodm:CDISCDefinition>The most outer superficial part of the heart which is situated on the left 5th intercostal space. (NCI)</nciodm:CDISCDefinition>
                    <nciodm:PreferredTerm>Apex of the Heart</nciodm:PreferredTerm>
                </EnumeratedItem>
                <EnumeratedItem CodedValue="HEART, ATRIUM" nciodm:ExtCodeID="C12728">
                    <nciodm:CDISCSynonym>Cardiac Atrium</nciodm:CDISCSynonym>
                    <nciodm:CDISCDefinition>The paired upper chambers of the heart. The left atrium receives oxygenated blood from the pulmonary vein and pumps blood into the left ventricle. The right atrium receives venous deoxygenated blood from the entire body via the superior and inferior vena cavae and pumps blood into the right ventricle. (NCI)</nciodm:CDISCDefinition>
                    <nciodm:PreferredTerm>Cardiac Atrium</nciodm:PreferredTerm>
                </EnumeratedItem>
                <EnumeratedItem CodedValue="HEART, BASE" nciodm:ExtCodeID="C48589">
                    <nciodm:CDISCSynonym>Base of the Heart</nciodm:CDISCSynonym>
                    <nciodm:CDISCDefinition>The superior portion of the heart located opposite to the apical portion. It is formed mainly by the left atrium. (NCI)</nciodm:CDISCDefinition>
                    <nciodm:PreferredTerm>Base of the Heart</nciodm:PreferredTerm>
                </EnumeratedItem>
                <EnumeratedItem CodedValue="HEART, LEFT VENTRICLE" nciodm:ExtCodeID="C12871">
                    <nciodm:CDISCSynonym>Left Ventricle</nciodm:CDISCSynonym>
                    <nciodm:CDISCDefinition>The left lower chamber of the heart that receives blood from the left atrium and pumps it through the aorta to the body. (NCI)</nciodm:CDISCDefinition>
                    <nciodm:PreferredTerm>Left Ventricle</nciodm:PreferredTerm>
                </EnumeratedItem>
                <EnumeratedItem CodedValue="HEART, RIGHT VENTRICLE" nciodm:ExtCodeID="C12870">
                    <nciodm:CDISCSynonym>Right Ventricle</nciodm:CDISCSynonym>
                    <nciodm:CDISCDefinition>The lower chamber of the heart located in the right side. It receives blood from the right atrium that is no longer oxygenated and it pumps it to the pulmonary artery. (NCI)</nciodm:CDISCDefinition>
                    <nciodm:PreferredTerm>Right Ventricle</nciodm:PreferredTerm>
                </EnumeratedItem>
                <EnumeratedItem CodedValue="HEART, SEPTUM" nciodm:ExtCodeID="C49485">
                    <nciodm:CDISCSynonym>Cardiac Septum</nciodm:CDISCSynonym>
                    <nciodm:CDISCDefinition>The tissue in the heart that separates the two atria (atrial septum) and the two ventricles (ventricular septum). (NCI)</nciodm:CDISCDefinition>
                    <nciodm:PreferredTerm>Heart Septum</nciodm:PreferredTerm>
                </EnumeratedItem>
                <EnumeratedItem CodedValue="HEART, VENTRICLE" nciodm:ExtCodeID="C12730">
                    <nciodm:CDISCSynonym>Cardiac Ventricle</nciodm:CDISCSynonym>
                    <nciodm:CDISCDefinition>The lower right and left chambers of the heart. The right pumps venous blood into the lungs and the left pumps oxygenated blood into the systemic arterial circulation. (MeSH)</nciodm:CDISCDefinition>
                    <nciodm:PreferredTerm>Cardiac Ventricle</nciodm:PreferredTerm>
                </EnumeratedItem>
                <EnumeratedItem CodedValue="HEPATIC LYMPH NODE" nciodm:ExtCodeID="C77640">
                    <nciodm:CDISCDefinition>Any of the lymph nodes adjacent to the stomach and duodenum. (NCI)</nciodm:CDISCDefinition>
                    <nciodm:PreferredTerm>Hepatic Lymph Node</nciodm:PreferredTerm>
                </EnumeratedItem>
                <EnumeratedItem CodedValue="HILAR" nciodm:ExtCodeID="C25724">
                    <nciodm:CDISCSynonym>Hilar</nciodm:CDISCSynonym>
                    <nciodm:CDISCDefinition>Refers to the area associated with the hilum. (NCI)</nciodm:CDISCDefinition>
                    <nciodm:PreferredTerm>Hilar</nciodm:PreferredTerm>
                </EnumeratedItem>
                <EnumeratedItem CodedValue="HILAR LYMPH NODE" nciodm:ExtCodeID="C98187">
                    <nciodm:CDISCDefinition>A lymph node located in the hilum of the lung within the mediastinum.</nciodm:CDISCDefinition>
                    <nciodm:PreferredTerm>Pulmonary Hilar Lymph Node</nciodm:PreferredTerm>
                </EnumeratedItem>
                <EnumeratedItem CodedValue="HIP" nciodm:ExtCodeID="C64193">
                    <nciodm:CDISCSynonym>Hip</nciodm:CDISCSynonym>
                    <nciodm:CDISCDefinition>The lateral prominence of the pelvis from the waist to the thigh. (NCI)</nciodm:CDISCDefinition>
                    <nciodm:PreferredTerm>Hip</nciodm:PreferredTerm>
                </EnumeratedItem>
                <EnumeratedItem CodedValue="HIP JOINT" nciodm:ExtCodeID="C32742">
                    <nciodm:CDISCSynonym>Coxofemoral Joint</nciodm:CDISCSynonym>
                    <nciodm:CDISCSynonym>Hip Joint</nciodm:CDISCSynonym>
                    <nciodm:CDISCDefinition>A ball-and-socket joint between the head of the femur and the acetabulum. (NCI)</nciodm:CDISCDefinition>
                    <nciodm:PreferredTerm>Hip Joint</nciodm:PreferredTerm>
                </EnumeratedItem>
                <EnumeratedItem CodedValue="HIPPOCAMPUS" nciodm:ExtCodeID="C12444">
                    <nciodm:CDISCSynonym>Hippocampus</nciodm:CDISCSynonym>
                    <nciodm:CDISCDefinition>A curved gray matter structure of the temporal lobe lying on the floor of the lateral ventricle of the brain. (NCI)</nciodm:CDISCDefinition>
                    <nciodm:PreferredTerm>Hippocampus</nciodm:PreferredTerm>
                </EnumeratedItem>
                <EnumeratedItem CodedValue="HUMERAL EPICONDYLE" nciodm:ExtCodeID="C114187">
                    <nciodm:CDISCDefinition>The bone prominence at the distal end of the humerus to which ligaments and tendons of the joints are attached.</nciodm:CDISCDefinition>
                    <nciodm:PreferredTerm>Humeral Epicondyle</nciodm:PreferredTerm>
                </EnumeratedItem>
                <EnumeratedItem CodedValue="HUMERUS" nciodm:ExtCodeID="C12731">
                    <nciodm:CDISCSynonym>Bone, Humeral</nciodm:CDISCSynonym>
                    <nciodm:CDISCSynonym>Humerus</nciodm:CDISCSynonym>
                    <nciodm:CDISCDefinition>The upper arm bone between the shoulder and elbow. (NCI)</nciodm:CDISCDefinition>
                    <nciodm:PreferredTerm>Humerus</nciodm:PreferredTerm>
                </EnumeratedItem>
                <EnumeratedItem CodedValue="HYOID BONE" nciodm:ExtCodeID="C32752">
                    <nciodm:CDISCSynonym>Hyoid Bone</nciodm:CDISCSynonym>
                    <nciodm:CDISCDefinition>A U-shaped bone supporting the tongue. This bone is located at the base of the tongue and is suspended from the tips of the styloid processes of the temporal bones by the stylohyoid ligaments. (NCI)</nciodm:CDISCDefinition>
                    <nciodm:PreferredTerm>Hyoid Bone</nciodm:PreferredTerm>
                </EnumeratedItem>
                <EnumeratedItem CodedValue="HYPOGLOSSAL NERVE" nciodm:ExtCodeID="C12732">
                    <nciodm:CDISCDefinition>The twelfth cranial nerve.</nciodm:CDISCDefinition>
                    <nciodm:PreferredTerm>Hypoglossal Nerve</nciodm:PreferredTerm>
                </EnumeratedItem>
                <EnumeratedItem CodedValue="HYPOPHARYNX" nciodm:ExtCodeID="C12246">
                    <nciodm:CDISCSynonym>Hypopharynx</nciodm:CDISCSynonym>
                    <nciodm:CDISCDefinition>The lower part of the pharynx that connects to the esophagus. (NCI)</nciodm:CDISCDefinition>
                    <nciodm:PreferredTerm>Hypopharynx</nciodm:PreferredTerm>
                </EnumeratedItem>
                <EnumeratedItem CodedValue="HYPOTHALAMUS" nciodm:ExtCodeID="C12458">
                    <nciodm:CDISCSynonym>Hypothalamus</nciodm:CDISCSynonym>
                    <nciodm:CDISCDefinition>The supervisory center in the brain, rich in ganglia, nerve fibers, and synaptic connections. It is composed of several sections called nuclei, each of which controls a specific function.</nciodm:CDISCDefinition>
                    <nciodm:PreferredTerm>Hypothalamus</nciodm:PreferredTerm>
                </EnumeratedItem>
                <EnumeratedItem CodedValue="ILEUM" nciodm:ExtCodeID="C12387">
                    <nciodm:CDISCSynonym>Ileum</nciodm:CDISCSynonym>
                    <nciodm:CDISCDefinition>The final section of the small intestine. (NCI)</nciodm:CDISCDefinition>
                    <nciodm:PreferredTerm>Ileum</nciodm:PreferredTerm>
                </EnumeratedItem>
                <EnumeratedItem CodedValue="ILEUM, TERMINAL" nciodm:ExtCodeID="C33757">
                    <nciodm:CDISCSynonym>Terminal Ileum</nciodm:CDISCSynonym>
                    <nciodm:CDISCDefinition>The most distal section of the ileum that is continuous with the cecum. (NCI)</nciodm:CDISCDefinition>
                    <nciodm:PreferredTerm>Terminal Ileum</nciodm:PreferredTerm>
                </EnumeratedItem>
                <EnumeratedItem CodedValue="ILIAC CREST" nciodm:ExtCodeID="C103818">
                    <nciodm:CDISCDefinition>A predominate bone structure which borders the ilium wing stretching from the anterior superior iliac spine to the posterior superior iliac spine.</nciodm:CDISCDefinition>
                    <nciodm:PreferredTerm>Iliac Crest</nciodm:PreferredTerm>
                </EnumeratedItem>
                <EnumeratedItem CodedValue="ILIAC FOSSA" nciodm:ExtCodeID="C103454">
                    <nciodm:CDISCDefinition>The large smooth and concave surface of the ilium. (NCI)</nciodm:CDISCDefinition>
                    <nciodm:PreferredTerm>Iliac Fossa</nciodm:PreferredTerm>
                </EnumeratedItem>
                <EnumeratedItem CodedValue="ILIAC LYMPH NODE" nciodm:ExtCodeID="C32761">
                    <nciodm:CDISCSynonym>Iliac Lymph Node</nciodm:CDISCSynonym>
                    <nciodm:CDISCDefinition>One of the three lymph nodes of the pelvis: the superior gluteal, interior gluteal or sacral. (NCI)</nciodm:CDISCDefinition>
                    <nciodm:PreferredTerm>Iliac Lymph Node</nciodm:PreferredTerm>
                </EnumeratedItem>
                <EnumeratedItem CodedValue="ILIUM" nciodm:ExtCodeID="C32765">
                    <nciodm:CDISCSynonym>Ilium</nciodm:CDISCSynonym>
                    <nciodm:CDISCDefinition>The broad, dorsal, upper, and widest of the three principal bones composing either half of the pelvis. (NCI)</nciodm:CDISCDefinition>
                    <nciodm:PreferredTerm>Ilium</nciodm:PreferredTerm>
                </EnumeratedItem>
                <EnumeratedItem CodedValue="INCISOR" nciodm:ExtCodeID="C32769">
                    <nciodm:CDISCSynonym>Incisor</nciodm:CDISCSynonym>
                    <nciodm:CDISCDefinition>One of the teeth in front of the canines in either jaw designed for cutting or gnawing. (NCI)</nciodm:CDISCDefinition>
                    <nciodm:PreferredTerm>Incisor</nciodm:PreferredTerm>
                </EnumeratedItem>
                <EnumeratedItem CodedValue="INCUS" nciodm:ExtCodeID="C32770">
                    <nciodm:CDISCSynonym>Incus</nciodm:CDISCSynonym>
                    <nciodm:CDISCDefinition>One of the three bones comprising the middle ear. This anvil-shaped bone is positioned between the malleus and the stapes. (NCI)</nciodm:CDISCDefinition>
                    <nciodm:PreferredTerm>Incus</nciodm:PreferredTerm>
                </EnumeratedItem>
                <EnumeratedItem CodedValue="INFRACLAVICULAR LYMPH NODE" nciodm:ExtCodeID="C63705">
                    <nciodm:CDISCSynonym>Infraclavicular Lymph Node</nciodm:CDISCSynonym>
                    <nciodm:CDISCDefinition>A lymph node located in the area below the clavicle. (NCI)</nciodm:CDISCDefinition>
                    <nciodm:PreferredTerm>Infraclavicular Lymph Node</nciodm:PreferredTerm>
                </EnumeratedItem>
                <EnumeratedItem CodedValue="INFRARENAL AORTA" nciodm:ExtCodeID="C116179">
                    <nciodm:CDISCDefinition>The portion of the abdominal aorta that lies below the kidneys.</nciodm:CDISCDefinition>
                    <nciodm:PreferredTerm>Infrarenal Aortic Segment</nciodm:PreferredTerm>
                </EnumeratedItem>
                <EnumeratedItem CodedValue="INGUINAL LYMPH NODE" nciodm:ExtCodeID="C32801">
                    <nciodm:CDISCSynonym>Inguinal Lymph Node</nciodm:CDISCSynonym>
                    <nciodm:CDISCDefinition>A superficial or deep lymph node located in the inguinal area. (NCI)</nciodm:CDISCDefinition>
                    <nciodm:PreferredTerm>Inguinal Lymph Node</nciodm:PreferredTerm>
                </EnumeratedItem>
                <EnumeratedItem CodedValue="INGUINAL REGION" nciodm:ExtCodeID="C12726">
                    <nciodm:CDISCSynonym>Inguinal Region</nciodm:CDISCSynonym>
                    <nciodm:CDISCDefinition>The lower region of the anterior abdominal wall located laterally to the pubic region. (NCI)</nciodm:CDISCDefinition>
                    <nciodm:PreferredTerm>Inguinal Region</nciodm:PreferredTerm>
                </EnumeratedItem>
                <EnumeratedItem CodedValue="INTERNAL ILIAC ARTERY" nciodm:ExtCodeID="C32845">
                    <nciodm:CDISCDefinition>A short thick blood vessel arising from the bifurcation of the common iliac artery with numerous branches that supply the organs, walls and viscera of the pelvis as well as the inner thigh.</nciodm:CDISCDefinition>
                    <nciodm:PreferredTerm>Internal Iliac Artery</nciodm:PreferredTerm>
                </EnumeratedItem>
                <EnumeratedItem CodedValue="INTERNAL MAMMARY ARTERY" nciodm:ExtCodeID="C52941">
                    <nciodm:CDISCDefinition>The blood vessel that supplies the breast and the anterior chest wall with arterial blood. It is located in the chest wall. (NCI)</nciodm:CDISCDefinition>
                    <nciodm:PreferredTerm>Internal Mammary Artery</nciodm:PreferredTerm>
                </EnumeratedItem>
                <EnumeratedItem CodedValue="INTERNAL MAMMARY LYMPH NODE" nciodm:ExtCodeID="C32853">
                    <nciodm:CDISCDefinition>Any of the lymph nodes of the breast located under the ribcage, near the sternum. (NCI)</nciodm:CDISCDefinition>
                    <nciodm:PreferredTerm>Internal Mammary Lymph Node</nciodm:PreferredTerm>
                </EnumeratedItem>
                <EnumeratedItem CodedValue="INTERPHALANGEAL JOINT 1" nciodm:ExtCodeID="C102301">
                    <nciodm:CDISCSynonym>IP1</nciodm:CDISCSynonym>
                    <nciodm:CDISCDefinition>A ginglymoid (hinge) synovial joint within the first digit of the hand or foot connecting the proximal and distal phalanges. (NCI)</nciodm:CDISCDefinition>
                    <nciodm:PreferredTerm>Interphalangeal Joint 1</nciodm:PreferredTerm>
                </EnumeratedItem>
                <EnumeratedItem CodedValue="INTERPHALANGEAL JOINT 1 OF THE FOOT" nciodm:ExtCodeID="C114200">
                    <nciodm:CDISCSynonym>IP1 of the Foot</nciodm:CDISCSynonym>
                    <nciodm:CDISCDefinition>A ginglymoid (hinge) synovial joint within the first digit of the foot connecting the proximal and distal phalanges. (NCI)</nciodm:CDISCDefinition>
                    <nciodm:PreferredTerm>Interphalangeal Joint 1 of the Foot</nciodm:PreferredTerm>
                </EnumeratedItem>
                <EnumeratedItem CodedValue="INTERPHALANGEAL JOINT 2" nciodm:ExtCodeID="C102302">
                    <nciodm:CDISCSynonym>IP2</nciodm:CDISCSynonym>
                    <nciodm:CDISCDefinition>A ginglymoid (hinge) synovial joint between the phalanges of the second digit of the hand or foot. (NCI)</nciodm:CDISCDefinition>
                    <nciodm:PreferredTerm>Interphalangeal Joint 2</nciodm:PreferredTerm>
                </EnumeratedItem>
                <EnumeratedItem CodedValue="INTERPHALANGEAL JOINT 2 OF THE FOOT" nciodm:ExtCodeID="C114201">
                    <nciodm:CDISCSynonym>IP2 of the Foot</nciodm:CDISCSynonym>
                    <nciodm:CDISCDefinition>A ginglymoid (hinge) synovial joint between the phalanges of the second digit of the foot. (NCI)</nciodm:CDISCDefinition>
                    <nciodm:PreferredTerm>Interphalangeal Joint 2 of the Foot</nciodm:PreferredTerm>
                </EnumeratedItem>
                <EnumeratedItem CodedValue="INTERPHALANGEAL JOINT 2 OF THE HAND" nciodm:ExtCodeID="C114190">
                    <nciodm:CDISCSynonym>IP2 of the Hand</nciodm:CDISCSynonym>
                    <nciodm:CDISCDefinition>A ginglymoid (hinge) synovial joint between the phalanges of the second digit of the hand. (NCI)</nciodm:CDISCDefinition>
                    <nciodm:PreferredTerm>Interphalangeal Joint 2 of the Hand</nciodm:PreferredTerm>
                </EnumeratedItem>
                <EnumeratedItem CodedValue="INTERPHALANGEAL JOINT 3" nciodm:ExtCodeID="C102303">
                    <nciodm:CDISCSynonym>IP3</nciodm:CDISCSynonym>
                    <nciodm:CDISCDefinition>A ginglymoid (hinge) synovial joint between the phalanges of the third digit of the hand or foot. (NCI)</nciodm:CDISCDefinition>
                    <nciodm:PreferredTerm>Interphalangeal Joint 3</nciodm:PreferredTerm>
                </EnumeratedItem>
                <EnumeratedItem CodedValue="INTERPHALANGEAL JOINT 3 OF THE FOOT" nciodm:ExtCodeID="C114202">
                    <nciodm:CDISCSynonym>IP3 of the Foot</nciodm:CDISCSynonym>
                    <nciodm:CDISCDefinition>A ginglymoid (hinge) synovial joint between the phalanges of the third digit of the foot. (NCI)</nciodm:CDISCDefinition>
                    <nciodm:PreferredTerm>Interphalangeal Joint 3 of the Foot</nciodm:PreferredTerm>
                </EnumeratedItem>
                <EnumeratedItem CodedValue="INTERPHALANGEAL JOINT 3 OF THE HAND" nciodm:ExtCodeID="C114191">
                    <nciodm:CDISCSynonym>IP3 of the Hand</nciodm:CDISCSynonym>
                    <nciodm:CDISCDefinition>A ginglymoid (hinge) synovial joint between the phalanges of the third digit of the hand. (NCI)</nciodm:CDISCDefinition>
                    <nciodm:PreferredTerm>Interphalangeal Joint 3 of the Hand</nciodm:PreferredTerm>
                </EnumeratedItem>
                <EnumeratedItem CodedValue="INTERPHALANGEAL JOINT 4" nciodm:ExtCodeID="C102304">
                    <nciodm:CDISCSynonym>IP4</nciodm:CDISCSynonym>
                    <nciodm:CDISCDefinition>A ginglymoid (hinge) synovial joint between the phalanges of the fourth digit of the hand or foot. (NCI)</nciodm:CDISCDefinition>
                    <nciodm:PreferredTerm>Interphalangeal Joint 4</nciodm:PreferredTerm>
                </EnumeratedItem>
                <EnumeratedItem CodedValue="INTERPHALANGEAL JOINT 4 OF THE FOOT" nciodm:ExtCodeID="C114203">
                    <nciodm:CDISCSynonym>IP4 of the Foot</nciodm:CDISCSynonym>
                    <nciodm:CDISCDefinition>A ginglymoid (hinge) synovial joint between the phalanges of the fourth digit of the foot. (NCI)</nciodm:CDISCDefinition>
                    <nciodm:PreferredTerm>Interphalangeal Joint 4 of the Foot</nciodm:PreferredTerm>
                </EnumeratedItem>
                <EnumeratedItem CodedValue="INTERPHALANGEAL JOINT 4 OF THE HAND" nciodm:ExtCodeID="C114192">
                    <nciodm:CDISCSynonym>IP4 of the Hand</nciodm:CDISCSynonym>
                    <nciodm:CDISCDefinition>A ginglymoid (hinge) synovial joint between the phalanges of the fourth digit of the hand. (NCI)</nciodm:CDISCDefinition>
                    <nciodm:PreferredTerm>Interphalangeal Joint 4 of the Hand</nciodm:PreferredTerm>
                </EnumeratedItem>
                <EnumeratedItem CodedValue="INTERPHALANGEAL JOINT 5" nciodm:ExtCodeID="C102305">
                    <nciodm:CDISCSynonym>IP5</nciodm:CDISCSynonym>
                    <nciodm:CDISCDefinition>A ginglymoid (hinge) synovial joint between the phalanges of the fifth digit of the hand or foot. (NCI)</nciodm:CDISCDefinition>
                    <nciodm:PreferredTerm>Interphalangeal Joint 5</nciodm:PreferredTerm>
                </EnumeratedItem>
                <EnumeratedItem CodedValue="INTERPHALANGEAL JOINT 5 OF THE FOOT" nciodm:ExtCodeID="C114204">
                    <nciodm:CDISCSynonym>IP5 of the Foot</nciodm:CDISCSynonym>
                    <nciodm:CDISCDefinition>A ginglymoid (hinge) synovial joint between the phalanges of the fifth digit of the foot. (NCI)</nciodm:CDISCDefinition>
                    <nciodm:PreferredTerm>Interphalangeal Joint 5 of the Foot</nciodm:PreferredTerm>
                </EnumeratedItem>
                <EnumeratedItem CodedValue="INTERPHALANGEAL JOINT 5 OF THE HAND" nciodm:ExtCodeID="C114193">
                    <nciodm:CDISCSynonym>IP5 of the Hand</nciodm:CDISCSynonym>
                    <nciodm:CDISCDefinition>A ginglymoid (hinge) synovial joint between the phalanges of the fifth digit of the hand. (NCI)</nciodm:CDISCDefinition>
                    <nciodm:PreferredTerm>Interphalangeal Joint 5 of the Hand</nciodm:PreferredTerm>
                </EnumeratedItem>
                <EnumeratedItem CodedValue="INTERPHALANGEAL JOINT OF THE HAND" nciodm:ExtCodeID="C32868">
                    <nciodm:CDISCSynonym>Interphalangeal Joint of the Hand</nciodm:CDISCSynonym>
                    <nciodm:CDISCDefinition>The hinge synovial joints between the phalanges of the fingers. (NCI)</nciodm:CDISCDefinition>
                    <nciodm:PreferredTerm>Interphalangeal Joint of the Hand</nciodm:PreferredTerm>
                </EnumeratedItem>
                <EnumeratedItem CodedValue="INTERPHALANGEAL OF THE FOOT" nciodm:ExtCodeID="C32867">
                    <nciodm:CDISCSynonym>IP of the Foot</nciodm:CDISCSynonym>
                    <nciodm:CDISCDefinition>The hinge synovial joints between the bones of the toes. (NCI)</nciodm:CDISCDefinition>
                    <nciodm:PreferredTerm>Interphalangeal Joint of the Foot</nciodm:PreferredTerm>
                </EnumeratedItem>
                <EnumeratedItem CodedValue="INTERPHALANGEAL THUMB JOINT" nciodm:ExtCodeID="C102306">
                    <nciodm:CDISCSynonym>IP THUMB</nciodm:CDISCSynonym>
                    <nciodm:CDISCSynonym>IP1 of the Hand</nciodm:CDISCSynonym>
                    <nciodm:CDISCSynonym>Interphalangeal Joint 1 of the Hand</nciodm:CDISCSynonym>
                    <nciodm:CDISCDefinition>A condyloid synovial joint within the thumb connecting the proximal and distal phalanges.</nciodm:CDISCDefinition>
                    <nciodm:PreferredTerm>Interphalangeal Thumb Joint</nciodm:PreferredTerm>
                </EnumeratedItem>
                <EnumeratedItem CodedValue="INTESTINE" nciodm:ExtCodeID="C12736">
                    <nciodm:CDISCSynonym>Intestine</nciodm:CDISCSynonym>
                    <nciodm:CDISCDefinition>The portion of the gastrointestinal tract between the stomach and the anus. It includes the small intestine and large intestine. (NCI)</nciodm:CDISCDefinition>
                    <nciodm:PreferredTerm>Intestine</nciodm:PreferredTerm>
                </EnumeratedItem>
                <EnumeratedItem CodedValue="INTRAHEPATIC BILE DUCT" nciodm:ExtCodeID="C12677">
                    <nciodm:CDISCDefinition>The bile ducts that pass through and drain bile from the liver. (NCI)</nciodm:CDISCDefinition>
                    <nciodm:PreferredTerm>Intrahepatic Bile Duct</nciodm:PreferredTerm>
                </EnumeratedItem>
                <EnumeratedItem CodedValue="INTRATHORACIC LYMPH NODE" nciodm:ExtCodeID="C12359">
                    <nciodm:CDISCDefinition>Any lymph node within the thoracic cavity.</nciodm:CDISCDefinition>
                    <nciodm:PreferredTerm>Intrathoracic Lymph Node</nciodm:PreferredTerm>
                </EnumeratedItem>
                <EnumeratedItem CodedValue="ISCHIAL TUBEROSITY" nciodm:ExtCodeID="C105446">
                    <nciodm:CDISCDefinition>The bony prominence of the lower part of the ischium. (NCI)</nciodm:CDISCDefinition>
                    <nciodm:PreferredTerm>Ischial Tuberosity</nciodm:PreferredTerm>
                </EnumeratedItem>
                <EnumeratedItem CodedValue="ISCHIORECTAL FOSSA" nciodm:ExtCodeID="C103455">
                    <nciodm:CDISCDefinition>A tetrahedral region of adipose tissue located in the ischiorectal region with its base between the tuberosity of the ischium and the lower end of the rectum and its apex at the point where the obturator fascia and the Levator ani membrane divide.</nciodm:CDISCDefinition>
                    <nciodm:PreferredTerm>Ischiorectal Fossa</nciodm:PreferredTerm>
                </EnumeratedItem>
                <EnumeratedItem CodedValue="ISCHIUM" nciodm:ExtCodeID="C32884">
                    <nciodm:CDISCSynonym>Ischium</nciodm:CDISCSynonym>
                    <nciodm:CDISCDefinition>The most posterior and ventral bone making up the pelvis. (NCI)</nciodm:CDISCDefinition>
                    <nciodm:PreferredTerm>Ischium</nciodm:PreferredTerm>
                </EnumeratedItem>
                <EnumeratedItem CodedValue="JEJUNUM" nciodm:ExtCodeID="C12388">
                    <nciodm:CDISCSynonym>Jejunum</nciodm:CDISCSynonym>
                    <nciodm:CDISCDefinition>The portion of the small intestine that extends from the duodenum to the ileum. (NCI)</nciodm:CDISCDefinition>
                    <nciodm:PreferredTerm>Jejunum</nciodm:PreferredTerm>
                </EnumeratedItem>
                <EnumeratedItem CodedValue="JOINT" nciodm:ExtCodeID="C13044">
                    <nciodm:CDISCSynonym>Articulation</nciodm:CDISCSynonym>
                    <nciodm:CDISCSynonym>Joint</nciodm:CDISCSynonym>
                    <nciodm:CDISCDefinition>The connection point between two bones or skeletal elements. The joint may be fixed or movable. (NCI)</nciodm:CDISCDefinition>
                    <nciodm:PreferredTerm>Joint</nciodm:PreferredTerm>
                </EnumeratedItem>
                <EnumeratedItem CodedValue="JUGULAR VEIN" nciodm:ExtCodeID="C12738">
                    <nciodm:CDISCSynonym>Vena Jugularis</nciodm:CDISCSynonym>
                    <nciodm:CDISCDefinition>Veins in the neck which drain the brain, face, and neck into the brachiocephalic or subclavian veins. (NCI)</nciodm:CDISCDefinition>
                    <nciodm:PreferredTerm>Jugular Vein</nciodm:PreferredTerm>
                </EnumeratedItem>
                <EnumeratedItem CodedValue="KIDNEY" nciodm:ExtCodeID="C12415">
                    <nciodm:CDISCSynonym>Kidney</nciodm:CDISCSynonym>
                    <nciodm:CDISCDefinition>One of the two bean-shaped organs located on each side of the spine in the retroperitoneum. The right kidney is located below the liver and the left kidney below the diaphragm. The kidneys filter and secret the metabolic products and minerals from the blood, thus maintaining the homeostasis. On the superior pole of each kidney there is an adrenal gland. Each kidney and adrenal gland is surrounded by fat. (NCI)</nciodm:CDISCDefinition>
                    <nciodm:PreferredTerm>Kidney</nciodm:PreferredTerm>
                </EnumeratedItem>
                <EnumeratedItem CodedValue="KIDNEY, CORTEX" nciodm:ExtCodeID="C12739">
                    <nciodm:CDISCSynonym>Renal Cortex</nciodm:CDISCSynonym>
                    <nciodm:CDISCDefinition>The outer zone of the KIDNEY, beneath the capsule, consisting of KIDNEY GLOMERULUS; KIDNEY TUBULES, DISTAL; and KIDNEY TUBULES, PROXIMAL. (MSH2001)</nciodm:CDISCDefinition>
                    <nciodm:PreferredTerm>Renal Cortex</nciodm:PreferredTerm>
                </EnumeratedItem>
                <EnumeratedItem CodedValue="KIDNEY, HILUM" nciodm:ExtCodeID="C32740">
                    <nciodm:CDISCSynonym>Hilar Area of the Kidney</nciodm:CDISCSynonym>
                    <nciodm:CDISCDefinition>The concave area of the kidney through which the renal artery enters and the renal vein and ureter exit the organ. (NCI)</nciodm:CDISCDefinition>
                    <nciodm:PreferredTerm>Hilar Area of the Kidney</nciodm:PreferredTerm>
                </EnumeratedItem>
                <EnumeratedItem CodedValue="KIDNEY, LOWER LOBE" nciodm:ExtCodeID="C93180">
                    <nciodm:CDISCSynonym>Lower Lobe of the Kidney</nciodm:CDISCSynonym>
                    <nciodm:CDISCDefinition>The lobe of the kidney located in the lowest portion of the kidney. (NCI)</nciodm:CDISCDefinition>
                    <nciodm:PreferredTerm>Lower Lobe of Kidney</nciodm:PreferredTerm>
                </EnumeratedItem>
                <EnumeratedItem CodedValue="KIDNEY, MEDULLA" nciodm:ExtCodeID="C12740">
                    <nciodm:CDISCSynonym>Renal Medulla</nciodm:CDISCSynonym>
                    <nciodm:CDISCDefinition>The internal portion of the kidney, consisting of striated conical masses, the renal pyramids, whose bases are adjacent to the cortex and whose apices form prominent papillae projecting into the lumen of the minor calyces. (MSH2001)</nciodm:CDISCDefinition>
                    <nciodm:PreferredTerm>Renal Medulla</nciodm:PreferredTerm>
                </EnumeratedItem>
                <EnumeratedItem CodedValue="KIDNEY, UPPER LOBE" nciodm:ExtCodeID="C93179">
                    <nciodm:CDISCSynonym>Upper Lobe of the Kidney</nciodm:CDISCSynonym>
                    <nciodm:CDISCDefinition>The lobe of the kidney located in the uppermost region of the kidney. (NCI)</nciodm:CDISCDefinition>
                    <nciodm:PreferredTerm>Upper Lobe of Kidney</nciodm:PreferredTerm>
                </EnumeratedItem>
                <EnumeratedItem CodedValue="KNEE JOINT" nciodm:ExtCodeID="C32898">
                    <nciodm:CDISCSynonym>Knee Joint</nciodm:CDISCSynonym>
                    <nciodm:CDISCSynonym>Tibiofemoral Joint</nciodm:CDISCSynonym>
                    <nciodm:CDISCDefinition>A joint connecting the lower part of the femur with the upper part of the tibia. The lower part of the femur and the upper part of the tibia are attached to each other by ligaments. Other structures of the knee joint include the upper part of the fibula, located below and parallel to the tibia, and the patella which moves as the knee bends. (NCI)</nciodm:CDISCDefinition>
                    <nciodm:PreferredTerm>Knee Joint</nciodm:PreferredTerm>
                </EnumeratedItem>
                <EnumeratedItem CodedValue="L1 VERTEBRA" nciodm:ExtCodeID="C32899">
                    <nciodm:CDISCSynonym>L1 Vertebra</nciodm:CDISCSynonym>
                    <nciodm:CDISCDefinition>The first lumbar vertebra counting from the top down. (NCI)</nciodm:CDISCDefinition>
                    <nciodm:PreferredTerm>L1 Vertebra</nciodm:PreferredTerm>
                </EnumeratedItem>
                <EnumeratedItem CodedValue="L2 VERTEBRA" nciodm:ExtCodeID="C32900">
                    <nciodm:CDISCSynonym>L2 Vertebra</nciodm:CDISCSynonym>
                    <nciodm:CDISCDefinition>The second lumbar vertebra counting from the top down. (NCI)</nciodm:CDISCDefinition>
                    <nciodm:PreferredTerm>L2 Vertebra</nciodm:PreferredTerm>
                </EnumeratedItem>
                <EnumeratedItem CodedValue="L2-L3 INTERVERTEBRAL SPACE" nciodm:ExtCodeID="C112327">
                    <nciodm:CDISCDefinition>The space between the L2 and L3 vertebrae.</nciodm:CDISCDefinition>
                    <nciodm:PreferredTerm>L2-L3 Intervertebral Space</nciodm:PreferredTerm>
                </EnumeratedItem>
                <EnumeratedItem CodedValue="L3 VERTEBRA" nciodm:ExtCodeID="C32901">
                    <nciodm:CDISCSynonym>L3 Vertebra</nciodm:CDISCSynonym>
                    <nciodm:CDISCDefinition>The third lumbar vertebra counting from the top down. (NCI)</nciodm:CDISCDefinition>
                    <nciodm:PreferredTerm>L3 Vertebra</nciodm:PreferredTerm>
                </EnumeratedItem>
                <EnumeratedItem CodedValue="L3-L4 INTERVERTEBRAL SPACE" nciodm:ExtCodeID="C112328">
                    <nciodm:CDISCDefinition>The space between the L3 and L4 vertebrae.</nciodm:CDISCDefinition>
                    <nciodm:PreferredTerm>L3-L4 Intervertebral Space</nciodm:PreferredTerm>
                </EnumeratedItem>
                <EnumeratedItem CodedValue="L4 VERTEBRA" nciodm:ExtCodeID="C32902">
                    <nciodm:CDISCSynonym>L4 Vertebra</nciodm:CDISCSynonym>
                    <nciodm:CDISCDefinition>The fourth lumbar vertebra counting from the top down. (NCI)</nciodm:CDISCDefinition>
                    <nciodm:PreferredTerm>L4 Vertebra</nciodm:PreferredTerm>
                </EnumeratedItem>
                <EnumeratedItem CodedValue="L5 VERTEBRA" nciodm:ExtCodeID="C32903">
                    <nciodm:CDISCSynonym>L5 Vertebra</nciodm:CDISCSynonym>
                    <nciodm:CDISCDefinition>The fifth lumbar vertebra counting from the top down. (NCI)</nciodm:CDISCDefinition>
                    <nciodm:PreferredTerm>L5 Vertebra</nciodm:PreferredTerm>
                </EnumeratedItem>
                <EnumeratedItem CodedValue="LACRIMAL BONE" nciodm:ExtCodeID="C32906">
                    <nciodm:CDISCSynonym>Lacrimal Bone</nciodm:CDISCSynonym>
                    <nciodm:CDISCDefinition>A small rectangular thin plate forming part of the medial orbit wall. It is located posterior to the frontal process of the maxilla and articulates with the inferior nasal concha, ethmoid, frontal, and maxillary bones. (NCI)</nciodm:CDISCDefinition>
                    <nciodm:PreferredTerm>Lacrimal Bone</nciodm:PreferredTerm>
                </EnumeratedItem>
                <EnumeratedItem CodedValue="LACRIMAL GLAND" nciodm:ExtCodeID="C12346">
                    <nciodm:CDISCDefinition>Paired, almond-shaped exocrine glands situated superior and posterior to each orbit of the eye that produce and secrete the watery serous component of tears. (NCI)</nciodm:CDISCDefinition>
                    <nciodm:PreferredTerm>Lacrimal Gland</nciodm:PreferredTerm>
                </EnumeratedItem>
                <EnumeratedItem CodedValue="LAD SEPTAL PERFORATOR ARTERY" nciodm:ExtCodeID="C102313">
                    <nciodm:CDISCSynonym>LAD SEPTAL PERFORATOR ARTERY SEGMENTS</nciodm:CDISCSynonym>
                    <nciodm:CDISCSynonym>LAD SP</nciodm:CDISCSynonym>
                    <nciodm:CDISCDefinition>The arteries that arise from the left anterior descending (LAD) artery that supply the interventricular septum.</nciodm:CDISCDefinition>
                    <nciodm:PreferredTerm>Left Anterior Descending Septal Perforator Artery</nciodm:PreferredTerm>
                </EnumeratedItem>
                <EnumeratedItem CodedValue="LARGE INTESTINE" nciodm:ExtCodeID="C12379">
                    <nciodm:CDISCSynonym>Large Intestine</nciodm:CDISCSynonym>
                    <nciodm:CDISCDefinition>A muscular tube that extends from the end of the small intestine to the anus. (NCI)</nciodm:CDISCDefinition>
                    <nciodm:PreferredTerm>Large Intestine</nciodm:PreferredTerm>
                </EnumeratedItem>
                <EnumeratedItem CodedValue="LARYNX" nciodm:ExtCodeID="C12420">
                    <nciodm:CDISCSynonym>Larynx</nciodm:CDISCSynonym>
                    <nciodm:CDISCDefinition>The cartilaginous structure of the respiratory tract between the pharynx and the trachea. It contains elastic vocal cords required for sound production. (NCI)</nciodm:CDISCDefinition>
                    <nciodm:PreferredTerm>Larynx</nciodm:PreferredTerm>
                </EnumeratedItem>
                <EnumeratedItem CodedValue="LATERAL FIRST DIAGONAL BRANCH ARTERY" nciodm:ExtCodeID="C102307">
                    <nciodm:CDISCSynonym>LAT 1ST DIAG</nciodm:CDISCSynonym>
                    <nciodm:CDISCSynonym>LATERAL FIRST DIAGONAL BRANCH ARTERY SEGMENT</nciodm:CDISCSynonym>
                    <nciodm:CDISCDefinition>The lateral branch distal to a bifurcation of the first diagonal artery.</nciodm:CDISCDefinition>
                    <nciodm:PreferredTerm>Lateral First Diagonal Branch Artery</nciodm:PreferredTerm>
                </EnumeratedItem>
                <EnumeratedItem CodedValue="LATERAL FIRST OBTUSE MARGINAL BRANCH ARTERY" nciodm:ExtCodeID="C102308">
                    <nciodm:CDISCSynonym>First Obtuse Marginal Lateral Branch</nciodm:CDISCSynonym>
                    <nciodm:CDISCSynonym>LAT 1ST OM</nciodm:CDISCSynonym>
                    <nciodm:CDISCSynonym>LATERAL FIRST OBTUSE MARGINAL BRANCH ARTERY SEGMENT</nciodm:CDISCSynonym>
                    <nciodm:CDISCDefinition>The lateral branch distal to a bifurcation of the first obtuse marginal artery.</nciodm:CDISCDefinition>
                    <nciodm:PreferredTerm>Lateral First Obtuse Marginal Branch Artery</nciodm:PreferredTerm>
                </EnumeratedItem>
                <EnumeratedItem CodedValue="LATERAL RAMUS INTERMEDIUS ARTERY" nciodm:ExtCodeID="C102309">
                    <nciodm:CDISCSynonym>LAT RAMUS</nciodm:CDISCSynonym>
                    <nciodm:CDISCSynonym>LATERAL RAMUS INTERMEDIUS ARTERY SEGMENT</nciodm:CDISCSynonym>
                    <nciodm:CDISCDefinition>The lateral branch distal to a bifurcation of the ramus intermedius artery.</nciodm:CDISCDefinition>
                    <nciodm:PreferredTerm>Lateral Ramus Intermedius Artery</nciodm:PreferredTerm>
                </EnumeratedItem>
                <EnumeratedItem CodedValue="LATERAL SECOND DIAGONAL BRANCH ARTERY" nciodm:ExtCodeID="C102310">
                    <nciodm:CDISCSynonym>LAT 2ND DIAG</nciodm:CDISCSynonym>
                    <nciodm:CDISCSynonym>LATERAL SECOND DIAGONAL BRANCH ARTERY SEGMENT</nciodm:CDISCSynonym>
                    <nciodm:CDISCDefinition>The lateral branch distal to a bifurcation of the second diagonal artery.</nciodm:CDISCDefinition>
                    <nciodm:PreferredTerm>Lateral Second Diagonal Branch Artery</nciodm:PreferredTerm>
                </EnumeratedItem>
                <EnumeratedItem CodedValue="LATERAL SECOND OBTUSE MARGINAL BRANCH ARTERY" nciodm:ExtCodeID="C102311">
                    <nciodm:CDISCSynonym>LAT 2ND OM</nciodm:CDISCSynonym>
                    <nciodm:CDISCSynonym>LATERAL SECOND OBTUSE MARGINAL BRANCH ARTERY SEGMENT</nciodm:CDISCSynonym>
                    <nciodm:CDISCSynonym>Second Obtuse Marginal Lateral Branch</nciodm:CDISCSynonym>
                    <nciodm:CDISCDefinition>The lateral branch distal to a bifurcation of the second obtuse marginal artery.</nciodm:CDISCDefinition>
                    <nciodm:PreferredTerm>Lateral Second Obtuse Marginal Branch Artery</nciodm:PreferredTerm>
                </EnumeratedItem>
                <EnumeratedItem CodedValue="LATERAL THIRD DIAGONAL BRANCH ARTERY" nciodm:ExtCodeID="C102312">
                    <nciodm:CDISCSynonym>LAT 3RD DIAG</nciodm:CDISCSynonym>
                    <nciodm:CDISCSynonym>LATERAL THIRD DIAGONAL BRANCH ARTERY SEGMENT</nciodm:CDISCSynonym>
                    <nciodm:CDISCDefinition>The lateral branch distal to a bifurcation of the third diagonal artery.</nciodm:CDISCDefinition>
                    <nciodm:PreferredTerm>Lateral Third Diagonal Branch Artery</nciodm:PreferredTerm>
                </EnumeratedItem>
                <EnumeratedItem CodedValue="LATERAL THIRD OBTUSE MARGINAL BRANCH ARTERY" nciodm:ExtCodeID="C102425">
                    <nciodm:CDISCSynonym>LAT 3RD OM</nciodm:CDISCSynonym>
                    <nciodm:CDISCSynonym>LATERAL THIRD OBTUSE MARGINAL BRANCH ARTERY SEGMENT</nciodm:CDISCSynonym>
                    <nciodm:CDISCSynonym>Third Obtuse Marginal Lateral Branch</nciodm:CDISCSynonym>
                    <nciodm:CDISCDefinition>The lateral branch distal to a bifurcation of the third obtuse marginal artery.</nciodm:CDISCDefinition>
                    <nciodm:PreferredTerm>Lateral Third Obtuse Marginal Branch Artery</nciodm:PreferredTerm>
                </EnumeratedItem>
                <EnumeratedItem CodedValue="LEFT ANTERIOR DESCENDING ARTERY OSTIUM" nciodm:ExtCodeID="C116175">
                    <nciodm:CDISCDefinition>The opening of the left anterior descending coronary artery at its origin.</nciodm:CDISCDefinition>
                    <nciodm:PreferredTerm>Left Anterior Descending Artery Ostium</nciodm:PreferredTerm>
                </EnumeratedItem>
                <EnumeratedItem CodedValue="LEFT ATRIOVENTRICULAR ARTERY" nciodm:ExtCodeID="C116177">
                    <nciodm:CDISCDefinition>The first posterolateral branch originating from the posterior atrioventricular left circumflex artery in left dominant and mixed circulations.</nciodm:CDISCDefinition>
                    <nciodm:PreferredTerm>Left Atrioventricular Artery</nciodm:PreferredTerm>
                </EnumeratedItem>
                <EnumeratedItem CodedValue="LEFT CIRCUMFLEX ARTERY OSTIUM" nciodm:ExtCodeID="C116176">
                    <nciodm:CDISCDefinition>The opening of the left circumflex artery at its origin.</nciodm:CDISCDefinition>
                    <nciodm:PreferredTerm>Left Circumflex Artery Ostium</nciodm:PreferredTerm>
                </EnumeratedItem>
                <EnumeratedItem CodedValue="LEFT CIRCUMFLEX CORONARY ARTERY" nciodm:ExtCodeID="C12874">
                    <nciodm:CDISCDefinition>An artery arising from the bifurcation of the left coronary artery that runs along the coronary groove.</nciodm:CDISCDefinition>
                    <nciodm:PreferredTerm>Circumflex Branch of the Left Coronary Artery</nciodm:PreferredTerm>
                </EnumeratedItem>
                <EnumeratedItem CodedValue="LEFT MAIN CORONARY ARTERY BIFURCATION" nciodm:ExtCodeID="C116174">
                    <nciodm:CDISCDefinition>The portion of the distal end of the left main coronary artery that branches into the left anterior descending artery and the left circumflex artery.</nciodm:CDISCDefinition>
                    <nciodm:PreferredTerm>Left Main Coronary Artery Bifurcation</nciodm:PreferredTerm>
                </EnumeratedItem>
                <EnumeratedItem CodedValue="LEFT MAIN CORONARY ARTERY BODY" nciodm:ExtCodeID="C116173">
                    <nciodm:CDISCDefinition>The segment of the left main coronary artery that is bounded by its ostium and bifurcation.</nciodm:CDISCDefinition>
                    <nciodm:PreferredTerm>Left Main Coronary Artery Body</nciodm:PreferredTerm>
                </EnumeratedItem>
                <EnumeratedItem CodedValue="LEFT MAIN CORONARY ARTERY OSTIUM" nciodm:ExtCodeID="C116172">
                    <nciodm:CDISCDefinition>The opening of the left coronary artery at its origin.</nciodm:CDISCDefinition>
                    <nciodm:PreferredTerm>Left Main Coronary Artery Ostium</nciodm:PreferredTerm>
                </EnumeratedItem>
                <EnumeratedItem CodedValue="LEFT POSTERIOR DESCENDING ARTERY" nciodm:ExtCodeID="C116178">
                    <nciodm:CDISCDefinition>The second posterolateral branch originating from the posterior atrioventricular left circumflex artery in left dominant and mixed circulations.</nciodm:CDISCDefinition>
                    <nciodm:PreferredTerm>Left Posterior Descending Artery</nciodm:PreferredTerm>
                </EnumeratedItem>
                <EnumeratedItem CodedValue="LEFT POSTEROLATERAL DESCENDING ARTERY" nciodm:ExtCodeID="C102314">
                    <nciodm:CDISCSynonym>LEFT POSTEROLATERAL DESCENDING ARTERY SEGMENT</nciodm:CDISCSynonym>
                    <nciodm:CDISCSynonym>LPDA</nciodm:CDISCSynonym>
                    <nciodm:CDISCDefinition>In an individual with a left-dominant heart, this branch arises from the circumflex artery atrioventricular groove continuation and supplies the inferior apex of the heart.</nciodm:CDISCDefinition>
                    <nciodm:PreferredTerm>Left Posterolateral Descending Artery</nciodm:PreferredTerm>
                </EnumeratedItem>
                <EnumeratedItem CodedValue="LEFT VENTRICULAR EPICARDIUM" nciodm:ExtCodeID="C102315">
                    <nciodm:CDISCDefinition>The outermost layer of cardiac tissue lining of the left ventricle.</nciodm:CDISCDefinition>
                    <nciodm:PreferredTerm>Left Ventricular Epicardium</nciodm:PreferredTerm>
                </EnumeratedItem>
                <EnumeratedItem CodedValue="LEG" nciodm:ExtCodeID="C32974">
                    <nciodm:CDISCSynonym>Leg</nciodm:CDISCSynonym>
                    <nciodm:CDISCDefinition>One of the two lower extremities in humans used for locomotion and support. (NCI)</nciodm:CDISCDefinition>
                    <nciodm:PreferredTerm>Leg</nciodm:PreferredTerm>
                </EnumeratedItem>
                <EnumeratedItem CodedValue="LEG SKIN" nciodm:ExtCodeID="C52749">
                    <nciodm:CDISCSynonym>Leg Skin</nciodm:CDISCSynonym>
                    <nciodm:CDISCDefinition>The skin or integument surrounding the leg. (NCI)</nciodm:CDISCDefinition>
                    <nciodm:PreferredTerm>Leg Skin</nciodm:PreferredTerm>
                </EnumeratedItem>
                <EnumeratedItem CodedValue="LENS" nciodm:ExtCodeID="C12743">
                    <nciodm:CDISCSynonym>Crystalline Lens</nciodm:CDISCSynonym>
                    <nciodm:CDISCSynonym>Lens</nciodm:CDISCSynonym>
                    <nciodm:CDISCSynonym>Lens Of Eye</nciodm:CDISCSynonym>
                    <nciodm:CDISCSynonym>Ocular Lens</nciodm:CDISCSynonym>
                    <nciodm:CDISCDefinition>A biconvex transparent structure of the eye through which light is focused on the retina. The lens sits behind the iris and is supported by the zonule, which connects it to the ciliary body. The lens is an avascular structure. (NCI)</nciodm:CDISCDefinition>
                    <nciodm:PreferredTerm>Lens</nciodm:PreferredTerm>
                </EnumeratedItem>
                <EnumeratedItem CodedValue="LESSER TROCHANTER" nciodm:ExtCodeID="C32982">
                    <nciodm:CDISCDefinition>A cone-shaped projection in the shaft of the femur in which the iliopsoas muscle is attached. (NCI)</nciodm:CDISCDefinition>
                    <nciodm:PreferredTerm>Lesser Trochanter</nciodm:PreferredTerm>
                </EnumeratedItem>
                <EnumeratedItem CodedValue="LIGAMENT" nciodm:ExtCodeID="C13046">
                    <nciodm:CDISCSynonym>Ligament</nciodm:CDISCSynonym>
                    <nciodm:CDISCDefinition>Band of fibrous tissue connecting bone to bone or cartilage to bone thereby supporting or strengthening a joint. (NCI)</nciodm:CDISCDefinition>
                    <nciodm:PreferredTerm>Ligament</nciodm:PreferredTerm>
                </EnumeratedItem>
                <EnumeratedItem CodedValue="LIMB" nciodm:ExtCodeID="C12429">
                    <nciodm:CDISCSynonym>Extremities</nciodm:CDISCSynonym>
                    <nciodm:CDISCSynonym>Limb</nciodm:CDISCSynonym>
                    <nciodm:CDISCDefinition>A body region referring to an upper or lower extremity. (NCI)</nciodm:CDISCDefinition>
                    <nciodm:PreferredTerm>Limb</nciodm:PreferredTerm>
                </EnumeratedItem>
                <EnumeratedItem CodedValue="LIMB, LOWER" nciodm:ExtCodeID="C12742">
                    <nciodm:CDISCSynonym>Lower Extremity</nciodm:CDISCSynonym>
                    <nciodm:CDISCDefinition>The limb that is composed of the hip, thigh, leg and foot. (NCI)</nciodm:CDISCDefinition>
                    <nciodm:PreferredTerm>Lower Extremity</nciodm:PreferredTerm>
                </EnumeratedItem>
                <EnumeratedItem CodedValue="LIMB, UPPER" nciodm:ExtCodeID="C12671">
                    <nciodm:CDISCSynonym>Upper Extremity</nciodm:CDISCSynonym>
                    <nciodm:CDISCDefinition>The region of the body that includes the arm, the forearm, and hand. (NCI)</nciodm:CDISCDefinition>
                    <nciodm:PreferredTerm>Upper Extremity</nciodm:PreferredTerm>
                </EnumeratedItem>
                <EnumeratedItem CodedValue="LINGULA OF THE LUNG" nciodm:ExtCodeID="C40373">
                    <nciodm:CDISCDefinition>A small tongue-like projection from the lower portion of the upper lobe of the left lung.</nciodm:CDISCDefinition>
                    <nciodm:PreferredTerm>Lingula of the Lung</nciodm:PreferredTerm>
                </EnumeratedItem>
                <EnumeratedItem CodedValue="LIP" nciodm:ExtCodeID="C12220">
                    <nciodm:CDISCSynonym>Lip</nciodm:CDISCSynonym>
                    <nciodm:CDISCDefinition>Fleshy fold which surrounds the opening of the mouth. (NCI)</nciodm:CDISCDefinition>
                    <nciodm:PreferredTerm>Lip</nciodm:PreferredTerm>
                </EnumeratedItem>
                <EnumeratedItem CodedValue="LIP, LOWER" nciodm:ExtCodeID="C12222">
                    <nciodm:CDISCSynonym>External Lower Lip</nciodm:CDISCSynonym>
                    <nciodm:CDISCDefinition>The external surface of the lower lip. (NCI)</nciodm:CDISCDefinition>
                    <nciodm:PreferredTerm>External Lower Lip</nciodm:PreferredTerm>
                </EnumeratedItem>
                <EnumeratedItem CodedValue="LIP, UPPER" nciodm:ExtCodeID="C12221">
                    <nciodm:CDISCSynonym>External Upper Lip</nciodm:CDISCSynonym>
                    <nciodm:CDISCDefinition>The external surface of the upper lip. (NCI)</nciodm:CDISCDefinition>
                    <nciodm:PreferredTerm>External Upper Lip</nciodm:PreferredTerm>
                </EnumeratedItem>
                <EnumeratedItem CodedValue="LIVER" nciodm:ExtCodeID="C12392">
                    <nciodm:CDISCSynonym>Liver</nciodm:CDISCSynonym>
                    <nciodm:CDISCDefinition>A triangular-shaped organ located under the diaphragm in the right hypochondrium. It is the largest internal organ of the body, weighting up to 2 kg. Metabolism and bile secretion are its main functions. It is composed of cells which have the ability to regenerate. (NCI)</nciodm:CDISCDefinition>
                    <nciodm:PreferredTerm>Liver</nciodm:PreferredTerm>
                </EnumeratedItem>
                <EnumeratedItem CodedValue="LIVER FISSURE" nciodm:ExtCodeID="C32996">
                    <nciodm:CDISCSynonym>Liver Fissure</nciodm:CDISCSynonym>
                    <nciodm:CDISCDefinition>A groove on the surface of the liver.</nciodm:CDISCDefinition>
                    <nciodm:PreferredTerm>Liver Fissure</nciodm:PreferredTerm>
                </EnumeratedItem>
                <EnumeratedItem CodedValue="LIVER, CAUDATE LOBE" nciodm:ExtCodeID="C33000">
                    <nciodm:CDISCDefinition>The lobe of the liver situated posteriorly located between the left lobe and the inferior vena cava.</nciodm:CDISCDefinition>
                    <nciodm:PreferredTerm>Caudate Lobe</nciodm:PreferredTerm>
                </EnumeratedItem>
                <EnumeratedItem CodedValue="LIVER, LEFT LOBE" nciodm:ExtCodeID="C32965">
                    <nciodm:CDISCDefinition>The smaller lobe of the liver extending into the left side of the body.</nciodm:CDISCDefinition>
                    <nciodm:PreferredTerm>Left Lobe of the Liver</nciodm:PreferredTerm>
                </EnumeratedItem>
                <EnumeratedItem CodedValue="LIVER, QUADRATE LOBE" nciodm:ExtCodeID="C112404">
                    <nciodm:CDISCDefinition>An oblong shaped area of the liver that is situated inferior to the right lobe, bounded by the anterior margin of the liver and the porta hepatis.</nciodm:CDISCDefinition>
                    <nciodm:PreferredTerm>Quadrate Lobe of Liver</nciodm:PreferredTerm>
                </EnumeratedItem>
                <EnumeratedItem CodedValue="LIVER, RIGHT LOBE" nciodm:ExtCodeID="C33481">
                    <nciodm:CDISCDefinition>The larger lobe of the liver extending into the right side of the body.</nciodm:CDISCDefinition>
                    <nciodm:PreferredTerm>Right Lobe of the Liver</nciodm:PreferredTerm>
                </EnumeratedItem>
                <EnumeratedItem CodedValue="LOCUS CERULEUS" nciodm:ExtCodeID="C97333">
                    <nciodm:CDISCDefinition>A brainstem nucleus. It is the major brain site for the synthesis and secretion of norepinephrine. (NCI)</nciodm:CDISCDefinition>
                    <nciodm:PreferredTerm>Locus Coeruleus</nciodm:PreferredTerm>
                </EnumeratedItem>
                <EnumeratedItem CodedValue="LUMBAR SPINE" nciodm:ExtCodeID="C69314">
                    <nciodm:CDISCDefinition>The vertebrae located below the thoracic and above the sacral vertebrae.</nciodm:CDISCDefinition>
                    <nciodm:PreferredTerm>Lumbar Spine</nciodm:PreferredTerm>
                </EnumeratedItem>
                <EnumeratedItem CodedValue="LUMBAR VERTEBRA" nciodm:ExtCodeID="C12744">
                    <nciodm:CDISCSynonym>Lumbar Vertebra</nciodm:CDISCSynonym>
                    <nciodm:CDISCDefinition>One of the five bones situated between the thoracic vertebrae and the sacrum in the lower part of the spine. (NCI)</nciodm:CDISCDefinition>
                    <nciodm:PreferredTerm>Lumbar Vertebra</nciodm:PreferredTerm>
                </EnumeratedItem>
                <EnumeratedItem CodedValue="LUNATE BONE" nciodm:ExtCodeID="C12786">
                    <nciodm:CDISCSynonym>Lunate Bone</nciodm:CDISCSynonym>
                    <nciodm:CDISCDefinition>The bone in the proximal row of carpal bones that lies between the scaphoid and triquetral bones. (NCI)</nciodm:CDISCDefinition>
                    <nciodm:PreferredTerm>Lunate Bone</nciodm:PreferredTerm>
                </EnumeratedItem>
                <EnumeratedItem CodedValue="LUNG" nciodm:ExtCodeID="C12468">
                    <nciodm:CDISCSynonym>Lung</nciodm:CDISCSynonym>
                    <nciodm:CDISCDefinition>One of a pair of viscera occupying the pulmonary cavities of the thorax, the organs of respiration in which aeration of the blood takes place. As a rule, the right lung is slightly larger than the left and is divided into three lobes (an upper, a middle, and a lower or basal), while the left has two lobes (an upper and a lower or basal). Each lung is irregularly conical in shape, presenting a blunt upper extremity (the apex), a concave base following the curve of the diaphragm, an outer convex surface (costal surface), an inner or mediastinal surface (mediastinal surface), a thin and sharp anterior border, and a thick and rounded posterior border. (NCI)</nciodm:CDISCDefinition>
                    <nciodm:PreferredTerm>Lung</nciodm:PreferredTerm>
                </EnumeratedItem>
                <EnumeratedItem CodedValue="LUNG, HILUM" nciodm:ExtCodeID="C49282">
                    <nciodm:CDISCSynonym>Hilar Area of the Lung</nciodm:CDISCSynonym>
                    <nciodm:CDISCDefinition>The wedge-shaped area at the central portion of the lung through which the bronchi, vessels and nerves enter or exit the organ. (NCI)</nciodm:CDISCDefinition>
                    <nciodm:PreferredTerm>Hilar Area of the Lung</nciodm:PreferredTerm>
                </EnumeratedItem>
                <EnumeratedItem CodedValue="LUNG, LEFT" nciodm:ExtCodeID="C32967">
                    <nciodm:CDISCSynonym>Left Lung</nciodm:CDISCSynonym>
                    <nciodm:CDISCDefinition>The 2-lobed lung located on the left side of the body. (NCI)</nciodm:CDISCDefinition>
                    <nciodm:PreferredTerm>Left Lung</nciodm:PreferredTerm>
                </EnumeratedItem>
                <EnumeratedItem CodedValue="LUNG, LEFT LOWER LOBE" nciodm:ExtCodeID="C33020">
                    <nciodm:CDISCSynonym>Lower Lobe of the Left Lung</nciodm:CDISCSynonym>
                    <nciodm:CDISCDefinition>The larger lobe of the left lung, situated below and behind the oblique fissure. (NCI)</nciodm:CDISCDefinition>
                    <nciodm:PreferredTerm>Lower Lobe of the Left Lung</nciodm:PreferredTerm>
                </EnumeratedItem>
                <EnumeratedItem CodedValue="LUNG, LEFT UPPER LOBE" nciodm:ExtCodeID="C33021">
                    <nciodm:CDISCSynonym>Upper Lobe of the Left Lung</nciodm:CDISCSynonym>
                    <nciodm:CDISCDefinition>The smaller lobe of the left lung, situated above and in front the oblique fissure, which includes the apex. (NCI)</nciodm:CDISCDefinition>
                    <nciodm:PreferredTerm>Upper Lobe of the Left Lung</nciodm:PreferredTerm>
                </EnumeratedItem>
                <EnumeratedItem CodedValue="LUNG, RIGHT" nciodm:ExtCodeID="C33483">
                    <nciodm:CDISCSynonym>Right Lung</nciodm:CDISCSynonym>
                    <nciodm:CDISCDefinition>The 3-lobed lung located on the right side of the body. (NCI)</nciodm:CDISCDefinition>
                    <nciodm:PreferredTerm>Right Lung</nciodm:PreferredTerm>
                </EnumeratedItem>
                <EnumeratedItem CodedValue="LUNG, RIGHT LOWER LOBE" nciodm:ExtCodeID="C33022">
                    <nciodm:CDISCSynonym>Lower Lobe of the Right Lung</nciodm:CDISCSynonym>
                    <nciodm:CDISCDefinition>The lobe of the right lung situated below the oblique fissure. (NCI)</nciodm:CDISCDefinition>
                    <nciodm:PreferredTerm>Lower Lobe of the Right Lung</nciodm:PreferredTerm>
                </EnumeratedItem>
                <EnumeratedItem CodedValue="LUNG, RIGHT MIDDLE LOBE" nciodm:ExtCodeID="C12286">
                    <nciodm:CDISCSynonym>Middle Lobe of the Right Lung</nciodm:CDISCSynonym>
                    <nciodm:CDISCDefinition>The smallest lobe of the right lung, situated above the oblique fissure and below the horizontal fissure. (NCI)</nciodm:CDISCDefinition>
                    <nciodm:PreferredTerm>Middle Lobe of the Right Lung</nciodm:PreferredTerm>
                </EnumeratedItem>
                <EnumeratedItem CodedValue="LUNG, RIGHT UPPER LOBE" nciodm:ExtCodeID="C33023">
                    <nciodm:CDISCSynonym>Upper Lobe of the Right Lung</nciodm:CDISCSynonym>
                    <nciodm:CDISCDefinition>The lobe of the right lung, situated above the horizontal fissure, which includes the apex. (NCI)</nciodm:CDISCDefinition>
                    <nciodm:PreferredTerm>Upper Lobe of the Right Lung</nciodm:PreferredTerm>
                </EnumeratedItem>
                <EnumeratedItem CodedValue="LYMPH NODE" nciodm:ExtCodeID="C12745">
                    <nciodm:CDISCSynonym>Lymph Node</nciodm:CDISCSynonym>
                    <nciodm:CDISCSynonym>Lymphatic Gland</nciodm:CDISCSynonym>
                    <nciodm:CDISCDefinition>A bean-shaped organ surrounded by a connective tissue capsule. It is part of the lymphatic system and is found through out the body. It is composed predominantly of lymphocytes and its main function is immune protection. (NCI)</nciodm:CDISCDefinition>
                    <nciodm:PreferredTerm>Lymph Node</nciodm:PreferredTerm>
                </EnumeratedItem>
                <EnumeratedItem CodedValue="LYMPH NODE HILUM" nciodm:ExtCodeID="C33031">
                    <nciodm:CDISCSynonym>Lymph Node Hilum</nciodm:CDISCSynonym>
                    <nciodm:CDISCDefinition>The concave side of the lymph node. (NCI)</nciodm:CDISCDefinition>
                    <nciodm:PreferredTerm>Lymph Node Hilum</nciodm:PreferredTerm>
                </EnumeratedItem>
                <EnumeratedItem CodedValue="MAIN BRONCHUS, LEFT" nciodm:ExtCodeID="C32968">
                    <nciodm:CDISCSynonym>Left Main Bronchus</nciodm:CDISCSynonym>
                    <nciodm:CDISCDefinition>One of the two main bronchi. It is narrower but longer than the right main bronchus and connects to the left lung. (NCI)</nciodm:CDISCDefinition>
                    <nciodm:PreferredTerm>Left Main Bronchus</nciodm:PreferredTerm>
                </EnumeratedItem>
                <EnumeratedItem CodedValue="MAIN BRONCHUS, RIGHT" nciodm:ExtCodeID="C33486">
                    <nciodm:CDISCSynonym>Right Main Bronchus</nciodm:CDISCSynonym>
                    <nciodm:CDISCDefinition>One of the two main bronchi. It is wider but shorter than the left main bronchus and connects to the right lung. (NCI)</nciodm:CDISCDefinition>
                    <nciodm:PreferredTerm>Right Main Bronchus</nciodm:PreferredTerm>
                </EnumeratedItem>
                <EnumeratedItem CodedValue="MALE GENITALIA" nciodm:ExtCodeID="C61599">
                    <nciodm:CDISCSynonym>Male Genitalia</nciodm:CDISCSynonym>
                    <nciodm:CDISCDefinition>Male internal and external organs of reproduction.</nciodm:CDISCDefinition>
                    <nciodm:PreferredTerm>Male Genitalia</nciodm:PreferredTerm>
                </EnumeratedItem>
                <EnumeratedItem CodedValue="MALE REPRODUCTIVE SYSTEM" nciodm:ExtCodeID="C12722">
                    <nciodm:CDISCDefinition>The sex organs of the male.</nciodm:CDISCDefinition>
                    <nciodm:PreferredTerm>Male Reproductive System</nciodm:PreferredTerm>
                </EnumeratedItem>
                <EnumeratedItem CodedValue="MALLEUS" nciodm:ExtCodeID="C33051">
                    <nciodm:CDISCSynonym>Malleus</nciodm:CDISCSynonym>
                    <nciodm:CDISCDefinition>A hammer-shaped bone, part of three interconnected small bones located in the middle ear. It is attached to the inner surface of the tympanic membrane and its function is to transmit sound vibrations. (NCI)</nciodm:CDISCDefinition>
                    <nciodm:PreferredTerm>Malleus</nciodm:PreferredTerm>
                </EnumeratedItem>
                <EnumeratedItem CodedValue="MAMMARY GLAND" nciodm:ExtCodeID="C12367">
                    <nciodm:CDISCDefinition>Lactiferous glands consisting of fibrous tissue connecting the lobes and fatty tissue in between the lobes.</nciodm:CDISCDefinition>
                    <nciodm:PreferredTerm>Mammary Gland</nciodm:PreferredTerm>
                </EnumeratedItem>
                <EnumeratedItem CodedValue="MANDIBLE" nciodm:ExtCodeID="C12290">
                    <nciodm:CDISCSynonym>Bone, Mandibular</nciodm:CDISCSynonym>
                    <nciodm:CDISCSynonym>Inferior Maxillary Bone</nciodm:CDISCSynonym>
                    <nciodm:CDISCSynonym>Jaw</nciodm:CDISCSynonym>
                    <nciodm:CDISCSynonym>Mandible</nciodm:CDISCSynonym>
                    <nciodm:CDISCDefinition>The lower jaw bone holding the lower teeth. (NCI)</nciodm:CDISCDefinition>
                    <nciodm:PreferredTerm>Mandible</nciodm:PreferredTerm>
                </EnumeratedItem>
                <EnumeratedItem CodedValue="MASTOID PROCESS" nciodm:ExtCodeID="C12503">
                    <nciodm:CDISCSynonym>Mastoid Process</nciodm:CDISCSynonym>
                    <nciodm:CDISCDefinition>A honeycombed section of bone located near the base of the skull, protruding behind the outer ear. It is connected to the middle ear. (NCI)</nciodm:CDISCDefinition>
                    <nciodm:PreferredTerm>Mastoid Process</nciodm:PreferredTerm>
                </EnumeratedItem>
                <EnumeratedItem CodedValue="MAXILLA" nciodm:ExtCodeID="C26470">
                    <nciodm:CDISCSynonym>Maxilla</nciodm:CDISCSynonym>
                    <nciodm:CDISCDefinition>The upper jawbone in vertebrates: it is fused to the cranium. (NCI)</nciodm:CDISCDefinition>
                    <nciodm:PreferredTerm>Maxilla</nciodm:PreferredTerm>
                </EnumeratedItem>
                <EnumeratedItem CodedValue="MAXILLARY SINUS" nciodm:ExtCodeID="C12275">
                    <nciodm:CDISCSynonym>Maxillary Sinus</nciodm:CDISCSynonym>
                    <nciodm:CDISCDefinition>A pyramidal-shaped, thin-walled, air-filled cavity located in the maxilla. It is lined by mucus membrane and periosteum (mucoperiosteum) which contains cilia. It is adjacent to the nasal cavity and communicates with the middle meatus of the nose. It is the largest paranasal sinus and is composed of three recesses: alveolar, zygomatic, and infraorbital. (NCI)</nciodm:CDISCDefinition>
                    <nciodm:PreferredTerm>Maxillary Sinus</nciodm:PreferredTerm>
                </EnumeratedItem>
                <EnumeratedItem CodedValue="MEDIAN OR LOWER CERVICAL LYMPH NODE" nciodm:ExtCodeID="C103417">
                    <nciodm:CDISCDefinition>A lymph node located in the median or lower region of the neck. (NCI)</nciodm:CDISCDefinition>
                    <nciodm:PreferredTerm>Median Or Lower Cervical Lymph Node</nciodm:PreferredTerm>
                </EnumeratedItem>
                <EnumeratedItem CodedValue="MEDIASTINAL LYMPH NODE" nciodm:ExtCodeID="C33073">
                    <nciodm:CDISCSynonym>Mediastinal Lymph Node</nciodm:CDISCSynonym>
                    <nciodm:CDISCDefinition>A lymph node located in the mediastinum. Mediastinal lymph nodes are arranged in three groups, one on the lateral, another on the medial, and a third on the anterior aspect of the vessels; the third group is, however, sometimes absent. (NCI)</nciodm:CDISCDefinition>
                    <nciodm:PreferredTerm>Mediastinal Lymph Node</nciodm:PreferredTerm>
                </EnumeratedItem>
                <EnumeratedItem CodedValue="MEDIASTINUM" nciodm:ExtCodeID="C12748">
                    <nciodm:CDISCSynonym>Mediastinum</nciodm:CDISCSynonym>
                    <nciodm:CDISCDefinition>A group of organs surrounded by loose connective tissue, separating the two pleural sacs, between the sternum anteriorly and the vertebral column posteriorly as well as from the thoracic inlet superiorly to the diaphragm inferiorly. The mediastinum contains the heart and pericardium, the bases of the great vessels, the trachea and bronchi, esophagus, thymus, lymph nodes, thoracic duct, phrenic and vagus nerves, and other structures and tissues. (NCI)</nciodm:CDISCDefinition>
                    <nciodm:PreferredTerm>Mediastinum</nciodm:PreferredTerm>
                </EnumeratedItem>
                <EnumeratedItem CodedValue="MEDIASTINUM, ANTERIOR" nciodm:ExtCodeID="C32098">
                    <nciodm:CDISCSynonym>Anterior Mediastinum</nciodm:CDISCSynonym>
                    <nciodm:CDISCDefinition>The area between the lungs; it contains the thymus, some lymph nodes, and vessels and branches of the internal thoracic artery. (NCI)</nciodm:CDISCDefinition>
                    <nciodm:PreferredTerm>Anterior Mediastinum</nciodm:PreferredTerm>
                </EnumeratedItem>
                <EnumeratedItem CodedValue="MEDIASTINUM, MIDDLE" nciodm:ExtCodeID="C33123">
                    <nciodm:CDISCSynonym>Middle Mediastinum</nciodm:CDISCSynonym>
                    <nciodm:CDISCDefinition>The broadest part of the lower portion of the mediastinum. It contains the heart and the great vessels. (NCI)</nciodm:CDISCDefinition>
                    <nciodm:PreferredTerm>Middle Mediastinum</nciodm:PreferredTerm>
                </EnumeratedItem>
                <EnumeratedItem CodedValue="MEDIASTINUM, POSTERIOR" nciodm:ExtCodeID="C33368">
                    <nciodm:CDISCSynonym>Posterior Mediastinum</nciodm:CDISCSynonym>
                    <nciodm:CDISCDefinition>The part of the lower portion of the mediastinum that is located behind the pericardium. (NCI)</nciodm:CDISCDefinition>
                    <nciodm:PreferredTerm>Posterior Mediastinum</nciodm:PreferredTerm>
                </EnumeratedItem>
                <EnumeratedItem CodedValue="MEDIASTINUM, SUPERIOR" nciodm:ExtCodeID="C33684">
                    <nciodm:CDISCSynonym>Superior Mediastinum</nciodm:CDISCSynonym>
                    <nciodm:CDISCDefinition>The part of the mediastinum that is located between the upper part of the sternum in the front and the upper thoracic vertebrae in the back. (NCI)</nciodm:CDISCDefinition>
                    <nciodm:PreferredTerm>Superior Mediastinum</nciodm:PreferredTerm>
                </EnumeratedItem>
                <EnumeratedItem CodedValue="MEDULLA OBLONGATA" nciodm:ExtCodeID="C12442">
                    <nciodm:CDISCSynonym>Medulla Oblongata</nciodm:CDISCSynonym>
                    <nciodm:CDISCDefinition>The lower portion of the brainstem located between the pons and brainstem. This structure contains several descending and ascending tracts, lower cranial nerve nuclei, a significant proportion of the reticular system of the brainstem and other structures. (NCI)</nciodm:CDISCDefinition>
                    <nciodm:PreferredTerm>Medulla Oblongata</nciodm:PreferredTerm>
                </EnumeratedItem>
                <EnumeratedItem CodedValue="MESENTERIC LYMPH NODE" nciodm:ExtCodeID="C77641">
                    <nciodm:CDISCDefinition>A lymph node located in the mesentery. (NCI)</nciodm:CDISCDefinition>
                    <nciodm:PreferredTerm>Mesenteric Lymph Node</nciodm:PreferredTerm>
                </EnumeratedItem>
                <EnumeratedItem CodedValue="MESENTERY" nciodm:ExtCodeID="C33103">
                    <nciodm:CDISCDefinition>A double layer of peritoneum that attaches to the back wall of the abdominal cavity and supports the small intestines. (NCI)</nciodm:CDISCDefinition>
                    <nciodm:PreferredTerm>Mesentery</nciodm:PreferredTerm>
                </EnumeratedItem>
                <EnumeratedItem CodedValue="METACARPOPHALANGEAL JOINT 1" nciodm:ExtCodeID="C102316">
                    <nciodm:CDISCSynonym>MCP1</nciodm:CDISCSynonym>
                    <nciodm:CDISCDefinition>A condyloid synovial joint within the first digit of the hand connecting the metacarpal to the proximal phalanx.</nciodm:CDISCDefinition>
                    <nciodm:PreferredTerm>Metacarpophalangeal Joint 1</nciodm:PreferredTerm>
                </EnumeratedItem>
                <EnumeratedItem CodedValue="METACARPOPHALANGEAL JOINT 2" nciodm:ExtCodeID="C102317">
                    <nciodm:CDISCSynonym>MCP2</nciodm:CDISCSynonym>
                    <nciodm:CDISCDefinition>A condyloid synovial joint within the second digit of the hand connecting the metacarpal to the proximal phalanx.</nciodm:CDISCDefinition>
                    <nciodm:PreferredTerm>Metacarpophalangeal Joint 2</nciodm:PreferredTerm>
                </EnumeratedItem>
                <EnumeratedItem CodedValue="METACARPOPHALANGEAL JOINT 3" nciodm:ExtCodeID="C102318">
                    <nciodm:CDISCSynonym>MCP3</nciodm:CDISCSynonym>
                    <nciodm:CDISCDefinition>A condyloid synovial joint within the third digit of the hand connecting the metacarpal to the proximal phalanx.</nciodm:CDISCDefinition>
                    <nciodm:PreferredTerm>Metacarpophalangeal Joint 3</nciodm:PreferredTerm>
                </EnumeratedItem>
                <EnumeratedItem CodedValue="METACARPOPHALANGEAL JOINT 4" nciodm:ExtCodeID="C102319">
                    <nciodm:CDISCSynonym>MCP4</nciodm:CDISCSynonym>
                    <nciodm:CDISCDefinition>A condyloid synovial joint within the fourth digit of the hand connecting the metacarpal to the proximal phalanx.</nciodm:CDISCDefinition>
                    <nciodm:PreferredTerm>Metacarpophalangeal Joint 4</nciodm:PreferredTerm>
                </EnumeratedItem>
                <EnumeratedItem CodedValue="METACARPOPHALANGEAL JOINT 5" nciodm:ExtCodeID="C102320">
                    <nciodm:CDISCSynonym>MCP5</nciodm:CDISCSynonym>
                    <nciodm:CDISCDefinition>A condyloid synovial joint within the fifth digit of the hand connecting the metacarpal to the proximal phalanx.</nciodm:CDISCDefinition>
                    <nciodm:PreferredTerm>Metacarpophalangeal Joint 5</nciodm:PreferredTerm>
                </EnumeratedItem>
                <EnumeratedItem CodedValue="METATARSAL BONE" nciodm:ExtCodeID="C12752">
                    <nciodm:CDISCSynonym>Metatarsal Bone</nciodm:CDISCSynonym>
                    <nciodm:CDISCDefinition>A bone belonging to the middle part of the foot located between toes and ankle. There are 5 metatarsal bones and they are numbered from the medial side. (NCI)</nciodm:CDISCDefinition>
                    <nciodm:PreferredTerm>Metatarsal Bone</nciodm:PreferredTerm>
                </EnumeratedItem>
                <EnumeratedItem CodedValue="METATARSOPHALANGEAL JOINT" nciodm:ExtCodeID="C33108">
                    <nciodm:CDISCSynonym>Metatarsophalangeal Joint</nciodm:CDISCSynonym>
                    <nciodm:CDISCDefinition>A spheroid joint located between the heads of the metatarsal bone and the base of the proximal phalanx of the toe. (NCI)</nciodm:CDISCDefinition>
                    <nciodm:PreferredTerm>Metatarsophalangeal Joint</nciodm:PreferredTerm>
                </EnumeratedItem>
                <EnumeratedItem CodedValue="METATARSOPHALANGEAL JOINT 1" nciodm:ExtCodeID="C102321">
                    <nciodm:CDISCSynonym>MTP1</nciodm:CDISCSynonym>
                    <nciodm:CDISCDefinition>A condyloid synovial joint within the first digit of the foot connecting metatarsal with the proximal phalanx.</nciodm:CDISCDefinition>
                    <nciodm:PreferredTerm>Metatarsophalangeal Joint 1</nciodm:PreferredTerm>
                </EnumeratedItem>
                <EnumeratedItem CodedValue="METATARSOPHALANGEAL JOINT 2" nciodm:ExtCodeID="C102322">
                    <nciodm:CDISCSynonym>MTP2</nciodm:CDISCSynonym>
                    <nciodm:CDISCDefinition>A condyloid synovial joint within the second digit of the foot connecting metatarsal with the proximal phalanx.</nciodm:CDISCDefinition>
                    <nciodm:PreferredTerm>Metatarsophalangeal Joint 2</nciodm:PreferredTerm>
                </EnumeratedItem>
                <EnumeratedItem CodedValue="METATARSOPHALANGEAL JOINT 3" nciodm:ExtCodeID="C102323">
                    <nciodm:CDISCSynonym>MTP3</nciodm:CDISCSynonym>
                    <nciodm:CDISCDefinition>A condyloid synovial joint within the third digit of the foot connecting metatarsal with the proximal phalanx.</nciodm:CDISCDefinition>
